time,ax,ay,az,aT
0.005,0.01,-0.04,-0.04,0.06
0.005,0.02,-0.07,-0.18,0.20
0.006,0.04,-0.10,-0.31,0.33
0.006,0.03,-0.11,-0.43,0.44
0.007,-0.06,-0.11,-0.55,0.56
0.007,-0.10,-0.12,-0.58,0.60
0.012,-0.08,-0.13,-0.66,0.68
0.017,-0.08,-0.11,-0.71,0.72
0.024,-0.14,-0.14,-0.72,0.75
0.027,-0.20,-0.11,-0.67,0.71
0.032,-0.15,-0.08,-0.63,0.65
0.037,-0.15,-0.09,-0.55,0.58
0.043,-0.14,-0.13,-0.56,0.59
0.047,-0.09,-0.10,-0.52,0.53
0.052,-0.06,-0.07,-0.46,0.47
0.059,-0.06,-0.05,-0.41,0.42
0.064,-0.01,-0.12,-0.41,0.42
0.069,0.03,-0.16,-0.33,0.37
0.074,-0.01,-0.18,-0.32,0.36
0.079,-0.01,-0.14,-0.22,0.26
0.085,0.01,-0.15,-0.14,0.20
0.090,-0.09,-0.13,-0.09,0.18
0.095,-0.08,-0.07,0.05,0.12
0.100,-0.10,-0.03,0.23,0.25
0.108,-0.10,-0.04,0.15,0.18
0.110,-0.05,-0.04,0.05,0.08
0.114,-0.05,-0.03,-0.07,0.09
0.119,-0.06,-0.00,-0.07,0.09
0.127,-0.02,-0.01,0.03,0.03
0.130,-0.06,-0.00,-0.02,0.06
0.135,-0.03,-0.03,-0.00,0.04
0.140,-0.12,-0.02,-0.04,0.13
0.144,-0.01,0.05,0.07,0.09
0.150,-0.04,-0.03,0.10,0.11
0.155,-0.01,-0.04,0.01,0.04
0.160,-0.03,-0.04,0.01,0.05
0.165,-0.12,-0.04,0.08,0.15
0.169,-0.11,-0.07,0.08,0.15
0.176,-0.22,0.01,-0.01,0.22
0.180,-0.21,0.01,-0.09,0.23
0.184,-0.22,0.00,-0.22,0.31
0.191,-0.17,0.06,-0.44,0.47
0.196,-0.23,0.05,-0.43,0.49
0.196,-0.32,0.02,-0.35,0.47
0.200,-0.35,0.00,-0.33,0.48
0.207,-0.34,-0.01,-0.42,0.53
0.211,-0.25,0.00,-0.53,0.58
0.216,-0.13,-0.00,-0.62,0.64
0.221,-0.06,-0.03,-0.65,0.65
0.226,-0.05,-0.08,-0.64,0.64
0.231,0.07,-0.15,-0.60,0.62
0.235,0.05,-0.18,-0.46,0.50
0.241,-0.04,-0.18,-0.31,0.36
0.246,-0.05,-0.20,-0.17,0.27
0.250,-0.05,-0.14,-0.06,0.16
0.256,0.02,-0.13,0.08,0.15
0.261,0.05,-0.19,0.21,0.29
0.266,0.08,-0.22,0.33,0.41
0.276,0.00,-0.27,0.32,0.42
0.277,-0.06,-0.32,0.18,0.37
0.281,-0.01,-0.30,-0.03,0.30
0.286,-0.01,-0.24,-0.25,0.35
0.291,0.05,-0.19,-0.41,0.45
0.296,0.06,-0.14,-0.49,0.52
0.301,-0.04,-0.11,-0.57,0.59
0.307,-0.14,-0.09,-0.56,0.58
0.312,-0.17,-0.06,-0.52,0.55
0.316,-0.19,-0.06,-0.47,0.51
0.322,-0.13,-0.06,-0.39,0.42
0.327,-0.09,-0.05,-0.33,0.35
0.332,-0.07,-0.04,-0.28,0.29
0.337,-0.00,-0.04,-0.23,0.23
0.342,0.01,-0.05,-0.19,0.20
0.347,0.02,-0.08,-0.17,0.19
0.351,0.09,-0.11,-0.20,0.24
0.357,0.10,-0.09,-0.24,0.27
0.362,0.09,-0.07,-0.19,0.22
0.367,0.01,-0.04,-0.11,0.12
0.373,-0.07,-0.00,-0.17,0.18
0.377,-0.08,0.04,-0.30,0.31
0.383,-0.09,0.09,-0.42,0.44
0.394,-0.11,0.18,-0.49,0.54
0.395,-0.13,0.25,-0.51,0.59
0.397,-0.10,0.27,-0.56,0.63
0.404,-0.08,0.22,-0.54,0.59
0.408,-0.06,0.15,-0.52,0.55
0.412,0.02,0.13,-0.50,0.52
0.417,0.09,0.15,-0.42,0.45
0.423,0.15,0.14,-0.42,0.47
0.427,0.16,0.15,-0.53,0.57
0.433,0.18,0.14,-0.69,0.73
0.438,0.08,0.07,-0.85,0.85
0.443,-0.04,-0.00,-0.92,0.92
0.448,-0.01,-0.07,-1.05,1.05
0.454,0.09,-0.12,-1.32,1.33
0.458,0.13,-0.10,-1.32,1.33
0.463,-0.09,-0.05,-1.32,1.32
0.468,-0.31,-0.01,-1.25,1.29
0.473,-0.47,0.02,-1.08,1.17
0.478,-0.25,-0.13,-0.90,0.95
0.483,-0.19,-0.17,-1.14,1.17
0.489,-0.12,-0.09,-1.03,1.04
0.493,0.08,-0.06,-1.09,1.09
0.498,0.43,-0.08,-1.31,1.38
0.511,0.64,-0.12,-1.73,1.85
0.511,0.80,-0.11,-1.83,2.00
0.513,0.58,-0.11,-1.76,1.86
0.519,0.17,-0.11,-1.51,1.52
0.523,-0.35,-0.08,-0.91,0.97
0.529,-0.73,0.01,-0.17,0.75
0.533,-0.75,0.07,0.14,0.77
0.540,-0.69,0.09,0.19,0.72
0.543,-0.61,0.05,0.14,0.62
0.549,-0.52,-0.05,0.11,0.53
0.555,-0.54,-0.13,0.02,0.55
0.559,-0.40,-0.13,-0.19,0.46
0.564,-0.30,-0.11,-0.28,0.42
0.570,0.02,-0.02,-0.37,0.37
0.574,0.02,-0.02,-0.42,0.42
0.579,-0.08,0.12,-0.48,0.50
0.583,-0.28,0.13,-0.24,0.39
0.589,-0.32,0.18,-0.20,0.42
0.595,-0.31,0.18,0.01,0.35
0.600,-0.30,0.20,0.12,0.38
0.604,-0.34,0.20,-0.05,0.40
0.609,-0.33,0.10,-0.19,0.40
0.615,-0.18,0.03,-0.37,0.41
0.622,0.87,-0.23,-1.44,1.70
0.625,0.82,-0.15,-1.17,1.44
0.630,0.61,-0.14,-1.01,1.19
0.643,0.60,-0.69,-0.13,0.92
0.643,-0.00,-0.22,-0.03,0.22
0.645,-0.65,-0.00,-0.25,0.69
0.650,-1.00,-0.07,-0.25,1.04
0.657,-1.05,-0.09,-0.18,1.07
0.660,-1.16,-0.14,-0.25,1.19
0.665,-1.38,-0.24,-0.14,1.40
0.666,-1.41,-0.20,0.06,1.42
0.671,-1.43,-0.15,0.34,1.48
0.675,-1.14,-0.02,0.50,1.24
0.680,-0.80,0.14,0.57,0.99
0.686,-0.38,0.27,0.49,0.67
0.695,-0.28,0.33,0.31,0.53
0.696,-0.37,0.26,-0.14,0.47
0.702,-0.48,0.17,-0.33,0.61
0.706,-0.56,0.13,-0.70,0.91
0.711,-0.36,0.16,-1.14,1.21
0.715,-0.47,-0.12,-1.63,1.70
0.721,-0.49,-0.36,-1.87,1.97
0.726,-0.40,-0.47,-1.97,2.07
0.731,-0.46,-0.47,-1.96,2.06
0.736,-0.77,-0.31,-1.89,2.06
0.741,-1.07,-0.13,-1.83,2.13
0.746,-1.17,-0.10,-1.67,2.04
0.751,-1.16,-0.16,-1.38,1.81
0.757,-0.99,-0.29,-0.98,1.42
0.761,-0.73,-0.42,-0.46,0.96
0.766,-0.67,-0.55,-0.04,0.87
0.772,-0.67,-0.64,0.26,0.96
0.776,-0.54,-0.73,0.58,1.08
0.781,-0.31,-0.81,0.83,1.20
0.788,-0.15,-0.87,0.97,1.31
0.793,-0.05,-0.87,1.06,1.37
0.797,0.05,-0.78,1.07,1.32
0.809,0.27,-0.60,0.94,1.15
0.810,0.41,-0.44,0.65,0.88
0.812,0.20,-0.39,0.32,0.55
0.817,-0.13,-0.40,0.04,0.42
0.822,-0.37,-0.40,-0.23,0.59
0.827,-0.50,-0.43,-0.54,0.85
0.832,-0.56,-0.47,-0.86,1.13
0.838,-0.44,-0.52,-1.13,1.32
0.842,-0.19,-0.56,-1.32,1.45
0.847,-0.02,-0.54,-1.55,1.64
0.852,-0.04,-0.43,-2.02,2.06
0.857,-0.34,-0.38,-2.53,2.58
0.862,-0.78,-0.45,-2.84,2.98
0.870,-1.14,-0.58,-3.04,3.30
0.876,-1.32,-0.70,-3.01,3.36
0.878,-1.42,-0.80,-2.84,3.27
0.882,-1.49,-0.86,-2.57,3.10
0.891,-1.37,-0.81,-2.15,2.67
0.893,-1.25,-0.68,-1.54,2.10
0.898,-1.21,-0.48,-0.82,1.54
0.903,-1.48,-0.46,-0.32,1.59
0.908,-1.64,-0.68,0.03,1.78
0.913,-1.77,-0.93,0.29,2.02
0.919,-1.87,-1.12,0.52,2.24
0.923,-2.07,-1.23,0.67,2.50
0.928,-2.37,-1.28,0.76,2.80
0.934,-2.84,-1.23,0.91,3.23
0.942,-3.47,-1.02,0.97,3.74
0.943,-4.04,-0.65,1.06,4.23
0.948,-4.39,-0.30,1.00,4.51
0.954,-4.64,-0.08,0.77,4.71
0.958,-4.57,-0.22,0.60,4.62
0.963,-3.77,-0.47,0.46,3.83
0.969,-1.82,-0.61,0.54,1.99
0.974,0.08,-0.54,0.53,0.76
0.979,1.46,-0.66,0.39,1.65
0.985,2.31,-0.69,0.64,2.49
0.989,3.06,-0.81,0.77,3.26
0.994,3.64,-1.11,0.72,3.87
1.007,3.88,-1.59,0.37,4.21
1.008,3.75,-2.14,0.07,4.32
1.009,3.09,-2.64,-0.27,4.07
1.014,2.42,-2.99,-0.42,3.87
1.020,1.79,-3.05,-0.10,3.54
1.024,1.48,-2.89,0.05,3.25
1.029,1.25,-2.61,0.26,2.90
1.035,1.03,-2.21,0.46,2.48
1.039,0.55,-1.91,0.38,2.02
1.044,0.23,-1.67,0.16,1.69
1.049,-0.03,-1.68,-0.24,1.70
1.055,-0.20,-1.75,-0.73,1.90
1.060,-0.51,-1.71,-0.94,2.02
1.064,-0.71,-1.42,-1.11,1.94
1.070,-0.64,-1.02,-1.16,1.68
1.075,-0.48,-0.59,-1.17,1.40
1.079,-0.11,-0.29,-1.06,1.10
1.085,0.11,0.03,-1.05,1.05
1.091,0.58,-0.00,-0.79,0.98
1.095,1.01,-0.00,-0.63,1.19
1.101,1.57,-0.19,-0.47,1.65
1.105,2.06,-0.45,-0.35,2.14
1.110,2.29,-0.75,-0.24,2.42
1.123,2.42,-1.05,-0.11,2.64
1.124,2.48,-1.27,0.07,2.79
1.125,2.52,-1.45,0.13,2.91
1.133,2.62,-1.60,0.14,3.08
1.134,2.66,-1.75,0.23,3.19
1.136,2.77,-1.85,0.32,3.35
1.140,2.79,-1.97,0.31,3.43
1.145,2.81,-2.17,0.18,3.55
1.151,2.85,-2.29,0.07,3.66
1.156,2.85,-2.40,0.08,3.72
1.161,2.52,-2.43,0.03,3.50
1.166,2.00,-2.33,0.08,3.07
1.172,1.47,-2.04,0.02,2.51
1.177,1.09,-1.55,0.07,1.89
1.183,1.04,-1.02,-0.08,1.46
1.188,1.04,-0.46,-0.34,1.18
1.192,1.12,0.06,-0.70,1.32
1.196,1.16,0.55,-1.06,1.66
1.202,1.29,0.92,-1.34,2.08
1.206,1.37,1.21,-1.51,2.37
1.211,1.38,1.31,-1.63,2.51
1.216,1.42,1.28,-1.76,2.60
1.221,1.46,1.17,-1.84,2.62
1.226,1.58,0.91,-1.69,2.49
1.232,1.84,0.58,-1.44,2.40
1.237,2.04,0.22,-1.20,2.38
1.241,2.19,-0.16,-0.95,2.39
1.246,2.32,-0.48,-0.73,2.48
1.252,2.46,-0.73,-0.48,2.61
1.256,2.55,-0.96,-0.32,2.74
1.261,2.54,-1.09,-0.16,2.77
1.269,2.37,-1.09,0.04,2.61
1.272,1.97,-0.93,0.22,2.19
1.277,1.52,-0.62,0.35,1.68
1.282,1.22,-0.23,0.50,1.34
1.288,1.00,0.18,0.70,1.24
1.292,0.78,0.60,0.89,1.32
1.298,0.53,0.95,0.99,1.47
1.303,0.20,1.19,0.94,1.52
1.307,-0.20,1.44,0.81,1.66
1.312,-0.49,1.56,0.60,1.74
1.319,-0.61,1.55,0.23,1.68
1.323,-0.69,1.46,-0.20,1.62
1.327,-0.75,1.31,-0.53,1.60
1.333,-0.77,1.12,-0.63,1.50
1.337,-0.86,0.91,-0.61,1.40
1.342,-0.91,0.72,-0.60,1.30
1.349,-0.95,0.51,-0.49,1.19
1.353,-1.04,0.36,-0.42,1.18
1.358,-1.12,0.19,-0.29,1.17
1.363,-1.18,0.01,-0.08,1.18
1.369,-1.27,-0.10,0.13,1.28
1.373,-1.51,-0.16,0.44,1.58
1.377,-1.84,-0.09,0.75,1.99
1.383,-2.18,0.16,0.97,2.39
1.388,-2.42,0.29,1.16,2.70
1.393,-2.52,0.31,1.37,2.89
1.399,-2.40,0.21,1.55,2.87
1.403,-2.12,-0.06,1.67,2.71
1.408,-1.80,-0.37,1.66,2.48
1.413,-1.29,-0.65,1.57,2.13
1.419,-0.89,-0.75,1.39,1.81
1.423,-0.64,-0.76,1.33,1.66
1.428,-0.39,-0.61,1.32,1.50
1.434,-0.33,-0.40,1.33,1.43
1.439,-0.24,-0.17,1.44,1.47
1.443,-0.20,-0.00,1.44,1.46
1.449,-0.07,0.08,1.58,1.59
1.453,-0.07,0.06,1.56,1.56
1.458,-0.02,-0.00,1.47,1.47
1.465,0.08,-0.08,1.29,1.29
1.469,0.34,-0.05,1.11,1.16
1.477,0.80,-0.03,1.01,1.29
1.485,1.18,-0.00,0.88,1.47
1.486,1.31,-0.15,0.60,1.45
1.490,1.19,-0.35,0.22,1.26
1.494,1.09,-0.61,-0.17,1.26
1.500,1.06,-0.68,-0.14,1.27
1.505,0.95,-0.59,-0.14,1.12
1.509,0.81,-0.32,-0.14,0.88
1.515,0.64,-0.14,-0.32,0.73
1.520,0.61,-0.10,-0.59,0.86
1.524,0.66,-0.21,-0.95,1.18
1.530,0.79,-0.52,-1.24,1.55
1.535,0.77,-0.92,-1.56,1.97
1.540,0.53,-1.40,-1.92,2.43
1.546,-0.02,-1.74,-1.93,2.60
1.550,-0.90,-1.87,-1.72,2.70
1.555,-1.77,-1.68,-1.11,2.68
1.560,-2.56,-1.31,-0.35,2.90
1.565,-3.14,-0.87,0.34,3.28
1.570,-3.41,-0.42,0.89,3.55
1.575,-3.33,0.21,1.37,3.61
1.581,-3.61,1.13,1.54,4.08
1.586,-5.03,2.46,2.44,6.11
1.590,-5.14,2.47,2.13,6.08
1.591,-3.52,1.49,-0.07,3.82
1.601,-3.07,1.51,-0.65,3.48
1.603,-2.56,2.63,-0.66,3.73
1.606,-2.36,3.71,-0.72,4.45
1.611,-1.93,3.65,-0.88,4.22
1.617,-0.68,3.19,-1.19,3.47
1.621,0.65,3.12,-1.18,3.40
1.626,1.40,2.80,-1.38,3.41
1.631,1.91,1.66,-2.11,3.29
1.636,2.12,0.61,-2.68,3.47
1.641,2.00,0.21,-2.83,3.47
1.646,1.76,0.07,-2.60,3.14
1.651,1.46,-0.20,-2.39,2.80
1.657,1.00,-0.56,-1.89,2.22
1.662,0.36,-0.94,-1.12,1.50
1.666,-0.07,-1.37,-0.49,1.45
1.672,-0.34,-1.71,-0.16,1.75
1.676,-0.68,-1.66,0.04,1.79
1.682,-1.08,-1.37,0.50,1.81
1.687,-1.16,-1.28,0.86,1.93
1.691,-1.28,-1.18,0.77,1.91
1.697,-1.62,-0.89,0.53,1.92
1.701,-1.73,-0.59,0.23,1.85
1.706,-1.45,-0.49,-0.05,1.53
1.716,-1.02,-0.53,-0.30,1.18
1.717,-0.76,-0.56,-0.53,1.09
1.722,-0.80,-0.50,-0.75,1.21
1.727,-1.08,-0.25,-0.93,1.45
1.733,-1.58,0.16,-0.85,1.81
1.737,-2.17,0.62,-0.62,2.34
1.741,-2.65,1.11,-0.48,2.91
1.748,-2.96,1.48,-0.48,3.35
1.753,-3.23,1.64,-0.73,3.69
1.757,-3.36,1.64,-1.30,3.95
1.763,-3.55,1.45,-1.98,4.31
1.768,-4.07,1.04,-2.49,4.88
1.773,-4.62,0.54,-2.83,5.44
1.778,-4.82,0.21,-2.80,5.58
1.783,-4.46,0.07,-2.19,4.96
1.788,-3.62,0.06,-1.51,3.92
1.792,-2.13,-0.16,-1.19,2.44
1.798,-0.28,-0.50,-1.26,1.38
1.803,1.01,-0.36,-1.48,1.83
1.808,1.54,-0.17,-1.64,2.26
1.813,1.55,-0.28,-1.72,2.33
1.818,1.24,-0.66,-1.74,2.24
1.823,0.94,-1.14,-1.62,2.19
1.829,0.59,-1.57,-1.44,2.21
1.833,0.02,-1.88,-1.14,2.20
1.838,-0.56,-1.87,-0.50,2.01
1.848,-1.06,-1.76,0.19,2.07
1.849,-1.34,-1.66,0.75,2.26
1.853,-1.48,-1.70,1.09,2.51
1.858,-1.43,-1.82,1.25,2.63
1.864,-0.88,-1.74,1.33,2.36
1.868,-0.13,-1.54,1.72,2.32
1.874,0.40,-1.18,1.69,2.10
1.880,0.45,-0.62,0.92,1.20
1.884,0.44,-0.11,-0.10,0.46
1.889,0.70,0.23,-1.06,1.29
1.895,0.91,0.39,-1.72,1.99
1.899,0.95,0.38,-2.18,2.40
1.904,0.58,0.01,-2.27,2.34
1.909,-0.25,-0.53,-1.94,2.03
1.915,-1.13,-0.92,-1.36,2.00
1.919,-1.56,-0.92,-0.78,1.97
1.924,-1.53,-0.68,-0.59,1.78
1.930,-1.45,-0.45,-0.64,1.65
1.935,-1.35,-0.55,-0.96,1.75
1.940,-1.22,-0.79,-1.28,1.94
1.946,-0.82,-0.73,-1.99,2.27
1.950,-0.29,-0.63,-2.96,3.04
1.954,0.02,-0.63,-3.35,3.41
1.961,-0.39,-0.56,-3.68,3.75
1.965,-0.90,-0.55,-3.62,3.77
1.969,-1.64,-0.26,-3.64,4.00
1.974,-1.55,-0.10,-2.63,3.05
1.981,-1.27,-0.08,-1.48,1.96
1.984,-1.08,0.02,-0.98,1.45
1.989,-1.11,0.17,-0.46,1.22
1.995,-1.39,0.17,-0.25,1.42
1.999,-1.64,0.09,0.06,1.65
2.005,-1.91,0.11,0.36,1.95
2.010,-1.99,0.19,0.49,2.06
2.015,-1.73,0.25,0.13,1.75
2.020,-1.21,0.23,-0.51,1.33
2.027,-0.77,0.08,-1.07,1.32
2.031,-0.60,-0.15,-1.43,1.56
2.035,-0.79,-0.27,-1.27,1.52
2.040,-1.00,-0.09,-0.82,1.30
2.046,-1.01,0.45,-0.31,1.15
2.051,-1.12,1.11,0.13,1.58
2.052,-1.11,1.51,0.81,2.04
2.056,-1.10,1.48,1.39,2.31
2.061,-1.36,1.13,1.33,2.21
2.066,-1.28,1.00,1.31,2.08
2.071,-1.08,0.91,1.28,1.90
2.078,-1.25,0.57,1.19,1.82
2.081,-1.69,-0.07,1.60,2.33
2.086,-2.02,-0.73,2.61,3.38
2.091,-2.29,-1.23,4.35,5.07
2.098,-2.28,-0.67,6.84,7.24
2.101,-1.89,0.58,7.39,7.65
2.106,-1.74,1.39,4.74,5.24
2.112,-1.44,1.52,1.58,2.62
2.116,-1.10,1.30,-1.58,2.33
2.121,-0.91,0.87,-3.92,4.12
2.127,-0.94,0.31,-5.98,6.07
2.132,-0.85,-0.25,-7.33,7.38
2.137,-0.93,-0.38,-8.04,8.10
2.143,-1.23,-0.21,-7.73,7.83
2.147,-1.52,-0.08,-7.06,7.22
2.152,-1.50,0.00,-6.04,6.23
2.156,-1.17,0.11,-4.70,4.84
2.162,-0.47,0.21,-3.16,3.20
2.167,0.44,0.17,-1.73,1.80
2.172,1.30,0.10,-0.39,1.36
2.178,1.66,0.38,1.71,2.41
2.182,2.75,0.21,1.85,3.32
2.187,4.30,-0.29,0.57,4.34
2.192,5.34,-0.71,-0.24,5.40
2.197,5.86,-1.21,-0.70,6.02
2.203,4.65,-1.05,0.97,4.87
2.209,3.66,-0.90,1.35,4.00
2.213,5.16,-2.82,0.85,5.94
2.217,5.35,-3.71,0.62,6.54
2.222,3.31,-2.19,-0.75,4.04
2.228,1.33,-0.66,-1.34,2.00
2.233,-0.54,0.76,-1.49,1.76
2.238,-1.78,1.69,-1.43,2.84
2.244,-2.52,2.12,-1.46,3.60
2.248,-2.86,2.09,-1.52,3.86
2.253,-2.82,1.78,-1.61,3.71
2.266,-2.37,1.35,-1.82,3.28
2.267,-1.59,0.90,-2.12,2.80
2.268,-0.72,0.57,-2.52,2.68
2.275,-0.11,0.30,-2.78,2.80
2.278,0.03,-0.06,-2.45,2.45
2.283,-0.33,-0.69,-1.46,1.64
2.288,-1.02,-1.52,-0.63,1.94
2.293,-2.10,-2.09,-0.73,3.06
2.298,-3.37,-2.07,-0.76,4.02
2.303,-3.31,-1.95,0.52,3.88
2.309,-1.80,-1.89,1.17,2.86
2.313,-0.75,-1.53,1.21,2.09
2.319,0.15,-1.18,1.62,2.01
2.325,0.94,-0.89,1.49,1.98
2.328,1.60,-0.86,1.35,2.26
2.334,2.10,-1.03,1.46,2.76
2.338,2.57,-1.13,1.68,3.27
2.344,2.72,-1.33,1.46,3.36
2.349,2.63,-1.75,0.69,3.23
2.354,2.33,-2.05,0.22,3.11
2.360,2.02,-2.00,0.08,2.85
2.364,1.80,-1.85,-0.16,2.58
2.369,1.57,-1.73,-0.35,2.36
2.381,1.28,-1.87,-0.41,2.30
2.382,0.92,-2.09,-0.61,2.37
2.384,0.21,-2.24,-1.12,2.51
2.389,-0.59,-2.26,-0.98,2.53
2.395,-1.33,-2.08,-0.12,2.47
2.399,-1.55,-1.98,1.29,2.83
2.405,-1.04,-1.91,2.06,3.00
2.411,-0.46,-1.63,2.25,2.82
2.414,0.40,-1.30,2.28,2.65
2.420,1.38,-0.92,2.14,2.71
2.425,2.20,-0.58,1.28,2.61
2.430,2.43,-0.32,-0.71,2.55
2.435,2.28,-0.09,-1.75,2.88
2.441,1.90,-0.13,-1.93,2.71
2.445,1.64,-0.42,-1.14,2.04
2.450,1.45,-1.04,-0.86,1.99
2.455,1.20,-1.98,-1.18,2.59
2.461,1.22,-2.55,-1.35,3.13
2.465,1.31,-2.59,-1.31,3.18
2.470,1.25,-2.61,-1.16,3.12
2.476,0.94,-2.55,-0.95,2.88
2.480,0.45,-2.22,-0.91,2.44
2.485,-0.31,-1.57,-0.84,1.81
2.492,-1.13,-0.66,-0.50,1.40
2.496,-1.64,0.17,-0.20,1.66
2.500,-2.19,0.64,-0.07,2.28
2.505,-2.79,1.06,-0.17,2.99
2.512,-3.20,1.44,-0.72,3.58
2.516,-3.11,1.69,-0.89,3.65
2.521,-2.68,1.75,-1.57,3.56
2.522,-2.14,1.32,-1.52,2.93
2.526,-1.57,0.51,-1.63,2.32
2.531,-0.88,-0.47,-1.53,1.83
2.536,0.03,-1.30,-1.75,2.18
2.541,0.97,-1.71,-1.50,2.48
2.546,2.06,-1.89,-0.56,2.85
2.551,2.66,-1.74,0.45,3.21
2.556,2.95,-1.66,1.40,3.66
2.562,2.77,-1.74,2.27,3.98
2.566,2.40,-1.75,3.04,4.25
2.571,1.96,-1.61,3.36,4.21
2.577,1.20,-1.24,3.10,3.55
2.581,0.50,-0.75,2.41,2.58
2.586,-0.26,-0.34,1.51,1.57
2.591,-0.79,0.13,0.69,1.06
2.597,-1.17,0.46,0.03,1.26
2.601,-1.92,0.50,-0.57,2.07
2.609,-2.03,0.32,-0.87,2.23
2.612,-1.50,0.07,-1.16,1.90
2.617,-0.93,-0.13,-1.54,1.80
2.625,-0.45,-0.17,-1.74,1.80
2.627,-0.13,-0.19,-1.79,1.80
2.632,0.00,-0.45,-2.03,2.08
2.637,-0.18,-0.78,-2.41,2.54
2.643,-0.47,-0.68,-2.56,2.69
2.647,-0.72,-0.11,-2.24,2.36
2.652,-0.88,0.33,-2.04,2.25
2.658,-0.69,0.21,-2.03,2.15
2.662,0.07,-0.30,-1.96,1.98
2.668,1.15,-0.77,-1.79,2.26
2.673,2.06,-1.02,-1.62,2.81
2.679,2.36,-0.97,-1.58,3.01
2.683,1.95,-0.72,-1.65,2.66
2.688,1.09,-0.34,-1.78,2.12
2.693,0.04,0.03,-1.82,1.82
2.698,-0.95,0.17,-1.68,1.94
2.702,-1.57,-0.06,-1.40,2.10
2.708,-1.64,-0.51,-0.99,1.99
2.713,-1.28,-0.77,-0.46,1.57
2.718,-0.83,-0.67,0.01,1.07
2.724,-0.40,-0.43,0.43,0.73
2.728,-0.12,-0.30,0.81,0.87
2.733,-0.11,-0.30,1.10,1.15
2.743,-0.05,-0.32,1.49,1.53
2.744,0.20,-0.21,2.02,2.04
2.748,0.69,-0.08,2.41,2.50
2.753,1.30,0.00,2.55,2.86
2.759,1.77,0.08,2.41,2.99
2.763,1.97,0.21,1.99,2.81
2.768,1.71,0.24,1.36,2.20
2.773,1.15,0.08,0.67,1.34
2.778,0.68,-0.25,-0.02,0.72
2.783,0.66,-0.65,-0.47,1.03
2.789,1.03,-1.02,-0.87,1.69
2.794,1.19,-1.19,-1.17,2.05
2.799,0.88,-1.07,-1.44,2.00
2.805,-0.08,-0.82,-1.73,1.92
2.809,-1.27,-0.33,-2.01,2.40
2.814,-2.12,0.31,-1.97,2.91
2.818,-2.36,0.97,-1.66,3.04
2.824,-2.13,1.05,-1.25,2.69
2.829,-1.69,0.33,-1.08,2.04
2.834,-1.06,-0.68,-0.99,1.60
2.839,-0.29,-1.54,-0.79,1.75
2.844,0.43,-1.69,-0.31,1.77
2.849,0.94,-1.45,0.27,1.74
2.856,1.39,-1.05,0.57,1.83
2.860,2.20,-0.94,0.67,2.48
2.864,2.70,-0.94,0.30,2.87
2.869,2.47,-1.01,-0.36,2.69
2.877,2.40,-1.12,-0.53,2.70
2.879,2.01,-1.19,-0.09,2.33
2.884,1.59,-0.91,-0.27,1.85
2.890,1.08,-0.64,-1.22,1.75
2.895,0.79,-0.53,-1.73,1.98
2.900,0.71,-0.94,-2.40,2.67
2.906,0.48,-1.10,-2.50,2.77
2.911,-0.40,-0.62,-1.78,1.93
2.915,-1.84,-0.01,-1.07,2.13
2.921,-3.02,0.39,-0.54,3.09
2.925,-3.90,0.80,0.18,3.99
2.930,-4.13,1.08,0.50,4.30
2.935,-3.65,1.21,0.33,3.86
2.941,-3.26,1.65,-0.40,3.68
2.945,-3.00,1.56,-1.82,3.84
2.950,-2.12,0.99,-2.40,3.35
2.956,-1.23,-0.04,-2.60,2.88
2.961,-0.83,-0.88,-2.52,2.79
2.966,-0.57,-1.55,-2.21,2.76
2.985,-0.21,-1.76,-1.56,2.36
2.986,-0.05,-1.39,-0.97,1.70
2.987,-0.25,-0.42,-0.08,0.49
2.989,-0.95,0.56,0.77,1.34
2.990,-1.68,1.14,1.14,2.32
2.991,-1.95,1.24,1.31,2.66
2.996,-1.88,0.89,1.60,2.63
3.001,-1.64,0.41,1.63,2.34
3.006,-1.39,-0.06,1.53,2.06
3.011,-0.99,-0.44,1.48,1.84
3.016,-0.68,-0.66,1.39,1.68
3.022,-0.49,-0.70,1.11,1.40
3.026,-0.42,-0.57,0.89,1.14
3.031,-0.20,-0.38,0.77,0.88
3.037,0.11,-0.16,0.62,0.65
3.042,0.41,-0.01,0.37,0.56
3.046,0.72,-0.03,0.17,0.74
3.051,1.08,-0.12,-0.13,1.10
3.057,1.40,-0.15,-0.42,1.47
3.062,1.59,-0.08,-0.74,1.75
3.067,1.42,0.10,-1.14,1.82
3.072,0.88,0.22,-1.54,1.79
3.077,0.20,0.19,-1.93,1.95
3.082,-0.36,0.19,-2.18,2.22
3.092,-1.04,0.42,-2.44,2.69
3.094,-1.70,0.82,-2.53,3.16
3.097,-2.11,1.08,-2.37,3.35
3.137,-2.30,1.12,-2.18,3.36
3.138,-2.37,1.09,-2.13,3.37
3.139,-2.17,1.03,-2.09,3.19
3.140,-1.82,0.95,-1.83,2.75
3.140,-1.62,0.76,-1.94,2.65
3.141,-1.16,0.32,-2.11,2.43
3.142,-0.51,-0.07,-2.04,2.10
3.143,-0.03,-0.19,-1.80,1.81
3.144,0.20,0.01,-1.45,1.46
3.150,0.23,0.41,-1.14,1.23
3.153,0.23,0.59,-0.72,0.96
3.158,0.44,0.14,-0.35,0.58
3.163,0.95,-0.96,-0.10,1.35
3.169,1.44,-1.80,0.35,2.33
3.177,1.61,-1.74,1.15,2.64
3.179,1.94,-1.16,5.72,6.15
3.183,1.97,-0.41,8.89,9.12
3.189,0.97,0.20,4.43,4.54
3.193,0.27,0.51,1.90,1.99
3.198,0.00,0.35,-0.12,0.37
3.208,-0.17,0.14,-1.35,1.37
3.209,-0.26,0.02,-1.54,1.56
3.213,-0.41,-0.09,-0.76,0.87
3.242,-0.57,-0.20,0.68,0.90
3.243,-0.75,-0.21,0.41,0.88
3.244,-0.56,-0.28,0.80,1.02
3.245,-0.16,-0.34,0.69,0.78
3.246,0.30,-0.44,0.90,1.05
3.247,0.65,-0.57,0.91,1.25
3.248,0.74,-0.67,0.61,1.17
3.254,0.76,-0.67,0.34,1.07
3.258,0.74,-0.56,0.37,0.99
3.269,0.45,-0.44,0.23,0.67
3.271,0.26,-0.36,-0.25,0.51
3.274,0.08,-0.33,-0.74,0.82
3.279,-0.09,-0.25,-0.70,0.75
3.285,-0.26,0.14,0.47,0.56
3.289,-0.68,0.50,1.12,1.40
3.298,-0.80,0.49,0.92,1.32
3.299,-0.69,0.03,0.64,0.94
3.305,-0.36,-0.55,0.32,0.73
3.309,0.08,-0.95,0.46,1.05
3.314,0.33,-1.00,0.89,1.38
3.320,0.22,-0.56,1.62,1.73
3.329,-0.19,-0.17,1.91,1.93
3.330,-0.46,-0.14,2.04,2.10
3.352,-0.52,-0.36,1.75,1.87
3.353,-0.56,-0.52,1.74,1.90
3.354,-0.52,-0.72,1.58,1.81
3.354,-0.53,-0.62,1.80,1.98
3.359,-0.43,-0.34,2.10,2.17
3.360,-0.59,-0.16,2.33,2.41
3.365,-0.68,-0.00,2.60,2.69
3.370,-1.06,0.20,3.20,3.38
3.375,-1.10,0.49,5.14,5.28
3.380,-1.01,0.59,4.80,4.95
3.391,-0.95,0.52,6.28,6.37
3.393,-1.05,0.30,6.42,6.51
3.395,-1.21,-0.01,5.44,5.58
3.401,-0.40,-3.10,-53.39,53.48
3.406,1.88,-3.08,-28.13,28.36
3.413,0.05,0.69,-7.68,7.71
3.419,-0.39,2.04,-1.90,2.81
3.422,-0.84,2.25,3.72,4.43
3.426,-2.02,1.75,3.12,4.11
3.432,-1.66,-0.11,0.16,1.67
3.437,-1.24,-0.94,-1.72,2.32
3.444,-0.90,-0.61,-0.90,1.41
3.451,-0.45,-0.27,0.65,0.84
3.452,-0.02,0.24,0.85,0.88
3.452,0.74,-0.08,-0.69,1.02
3.455,1.22,-0.47,-1.69,2.14
3.460,0.90,-0.48,-0.13,1.03
3.465,0.29,-0.11,0.49,0.58
3.484,-0.32,0.22,-0.18,0.43
3.492,-0.48,0.15,-1.00,1.11
3.493,-0.47,-0.03,-1.12,1.21
3.493,-0.37,0.04,-0.10,0.39
3.494,-0.36,0.13,0.80,0.88
3.496,-0.27,0.04,-0.06,0.28
3.501,-0.08,-0.14,-0.90,0.92
3.514,0.09,-0.22,-0.91,0.94
3.515,0.21,-0.17,-0.10,0.29
3.518,0.12,-0.07,0.52,0.54
3.522,-0.14,-0.04,0.13,0.20
3.526,-0.54,-0.11,-0.70,0.90
3.531,-0.93,-0.16,-0.87,1.28
3.536,-1.12,-0.10,-0.45,1.21
3.541,-1.18,0.04,0.05,1.19
3.546,-1.03,0.13,0.20,1.06
3.552,-0.57,0.13,0.09,0.59
3.557,-0.07,-0.02,-0.10,0.12
3.564,0.20,-0.20,0.19,0.34
3.567,0.36,-0.41,0.64,0.84
3.573,0.61,-0.68,0.56,1.07
3.577,0.74,-0.80,-0.07,1.10
3.587,0.53,-0.62,-0.65,1.04
3.588,0.19,-0.21,-0.82,0.87
3.595,0.17,0.20,-0.95,0.98
3.597,0.36,0.48,-0.91,1.09
3.619,0.49,0.57,-0.55,0.94
3.620,0.50,0.39,-0.16,0.65
3.621,0.38,0.07,0.07,0.39
3.621,0.18,-0.14,0.07,0.24
3.622,-0.01,-0.22,-0.06,0.23
3.627,-0.12,-0.32,-0.12,0.36
3.633,-0.26,-0.45,-0.06,0.52
3.640,-0.39,-0.52,-0.07,0.66
3.643,-0.39,-0.47,-0.18,0.64
3.648,-0.35,-0.31,-0.57,0.74
3.653,-0.48,-0.03,-0.93,1.05
3.659,-0.52,0.26,-2.03,2.11
3.663,-0.30,0.44,-2.48,2.54
3.668,-0.16,0.42,-0.25,0.51
3.673,-0.47,0.30,-0.36,0.66
3.678,-0.86,0.39,-0.34,1.01
3.683,-0.01,-0.09,-0.22,0.23
3.689,1.43,-0.60,-0.29,1.58
3.694,-0.12,0.27,-0.50,0.58
3.699,-0.26,0.21,-0.54,0.63
3.704,-0.21,0.18,-0.48,0.55
3.710,-0.29,0.05,-0.43,0.51
3.713,-0.62,-0.19,-0.34,0.73
3.719,-0.97,-0.38,-0.21,1.06
3.724,-1.15,-0.57,-0.22,1.30
3.729,-1.30,-0.52,-0.18,1.42
3.738,-0.63,-0.35,-0.58,0.93
3.739,0.44,-0.06,-1.22,1.29
3.746,-0.22,0.40,0.06,0.46
3.774,0.09,0.60,-0.10,0.61
3.775,1.68,0.53,-0.21,1.78
3.777,4.52,0.23,-0.60,4.56
3.778,0.29,0.65,-0.22,0.74
3.778,-0.40,-0.04,-0.34,0.52
3.779,-0.09,-0.04,-0.51,0.52
3.780,-0.18,-0.03,-0.43,0.47
3.786,-0.21,-0.09,-0.29,0.37
3.790,-0.13,-0.08,-0.17,0.23
3.795,-0.14,-0.07,-0.18,0.24
3.800,-0.22,0.05,-0.23,0.33
3.805,-0.19,-0.02,-0.56,0.59
3.810,-0.23,-0.09,-0.37,0.45
3.815,-0.11,-0.17,-0.20,0.28
3.820,-0.19,-0.28,-0.05,0.34
3.825,-0.18,-0.35,-0.22,0.45
3.829,-0.62,-0.46,-0.54,0.95
3.836,-0.44,-0.44,-0.49,0.79
3.840,-0.54,-0.26,-0.11,0.61
3.844,-0.80,0.02,0.10,0.81
3.850,-1.78,0.47,0.10,1.84
3.856,-0.20,0.57,-0.31,0.68
3.860,-0.26,0.64,-0.31,0.76
3.868,0.73,0.07,-0.33,0.81
3.871,1.14,0.24,-0.29,1.20
3.875,1.00,0.08,-0.40,1.08
3.901,0.25,-0.11,-0.46,0.53
3.903,-0.35,-0.03,-0.41,0.54
3.903,-0.69,0.17,-0.34,0.79
3.904,-0.74,0.14,-0.17,0.77
3.905,-0.56,0.08,-0.22,0.60
3.906,-0.07,-0.07,-0.27,0.28
3.912,0.37,-0.15,-0.24,0.46
3.913,0.59,-0.19,-0.24,0.66
3.917,0.60,-0.14,-0.25,0.66
3.922,0.09,-0.08,-0.21,0.24
3.926,-0.03,-0.03,-0.33,0.33
3.932,-0.14,-0.07,-0.42,0.45
3.937,-0.18,-0.02,-0.31,0.36
3.941,-0.15,-0.01,-0.26,0.30
3.946,-0.11,-0.02,-0.26,0.28
3.952,-0.09,-0.05,-0.26,0.28
3.956,-0.09,-0.08,-0.35,0.36
3.961,-0.02,-0.04,-0.42,0.42
3.968,0.10,0.04,-0.35,0.37
3.972,0.28,0.06,-0.25,0.38
3.976,0.59,-0.05,-0.26,0.64
3.982,0.75,-0.08,-0.27,0.80
3.987,1.06,-0.12,-0.31,1.11
3.992,1.44,-0.17,-0.21,1.47
4.000,1.24,-0.23,0.16,1.27
4.003,0.12,-0.39,-0.29,0.50
4.007,-0.56,-0.35,1.50,1.63
4.012,-0.67,-0.33,1.49,1.66
4.034,-0.86,-0.23,-0.37,0.96
4.035,-0.82,-0.04,-0.84,1.18
4.036,-0.64,-0.00,-0.23,0.68
4.037,-0.49,-0.02,0.17,0.51
4.039,-0.36,-0.02,0.09,0.37
4.043,-0.47,0.03,-0.41,0.63
4.049,-0.56,0.11,-0.69,0.90
4.053,-0.48,0.19,-0.55,0.75
4.057,-0.42,0.12,-0.27,0.51
4.064,-0.36,0.07,0.02,0.37
4.068,-0.33,0.12,0.02,0.35
4.072,-0.44,0.12,-0.28,0.54
4.077,-0.34,0.02,-0.58,0.67
4.083,-0.18,-0.08,-0.63,0.66
4.087,-0.18,-0.11,-0.32,0.38
4.093,-0.06,-0.12,0.02,0.14
4.098,-0.02,-0.05,-0.01,0.06
4.103,-0.08,0.00,-0.32,0.33
4.108,-0.16,-0.03,-0.57,0.60
4.113,-0.22,-0.02,-0.55,0.59
4.120,-0.20,-0.02,-0.25,0.32
4.123,-0.14,-0.06,0.00,0.16
4.128,-0.12,-0.05,-0.06,0.15
4.134,-0.09,-0.02,-0.37,0.39
4.142,-0.15,-0.06,-0.59,0.61
4.143,-0.18,-0.05,-0.44,0.48
4.152,-0.15,0.01,-0.16,0.22
4.154,-0.10,0.02,-0.05,0.12
4.159,-0.09,-0.01,-0.17,0.19
4.191,-0.13,-0.00,-0.39,0.41
4.192,-0.16,-0.03,-0.48,0.50
4.193,-0.18,-0.04,-0.30,0.36
4.193,-0.21,-0.07,-0.18,0.28
4.194,-0.15,-0.06,-0.14,0.21
4.194,-0.12,-0.04,-0.24,0.28
4.195,-0.09,-0.03,-0.41,0.43
4.199,-0.14,0.01,-0.40,0.42
4.203,-0.14,-0.02,-0.25,0.29
4.208,-0.14,-0.02,-0.17,0.22
4.214,-0.18,-0.06,-0.19,0.26
4.219,-0.15,-0.03,-0.34,0.37
4.224,-0.16,-0.02,-0.38,0.41
4.229,-0.12,-0.02,-0.36,0.38
4.235,-0.12,-0.05,-0.20,0.24
4.239,-0.14,-0.06,-0.12,0.19
4.245,-0.18,-0.03,-0.21,0.28
4.250,-0.15,-0.01,-0.41,0.43
4.254,-0.19,-0.01,-0.50,0.53
4.259,-0.16,-0.06,-0.34,0.38
4.266,-0.15,-0.07,-0.17,0.24
4.270,-0.16,-0.03,-0.09,0.18
4.275,-0.15,-0.04,-0.27,0.31
4.284,-0.18,-0.02,-0.47,0.50
4.286,-0.14,-0.06,-0.54,0.56
4.289,-0.13,-0.04,-0.29,0.32
4.311,-0.08,-0.03,-0.08,0.11
4.312,-0.11,-0.04,-0.07,0.13
4.313,-0.16,-0.02,-0.31,0.35
4.314,-0.17,-0.05,-0.51,0.54
4.323,-0.19,0.01,-0.49,0.53
4.324,-0.11,-0.00,-0.23,0.26
4.325,-0.04,-0.01,-0.02,0.05
4.329,-0.11,-0.02,-0.08,0.14
4.334,-0.14,-0.04,-0.33,0.36
4.340,-0.16,-0.09,-0.51,0.54
4.344,-0.15,-0.06,-0.47,0.49
4.349,-0.19,-0.01,-0.28,0.34
4.354,-0.06,-0.04,-0.14,0.16
4.361,-0.07,-0.02,-0.12,0.15
4.364,-0.21,-0.00,-0.25,0.33
4.369,-0.17,-0.03,-0.43,0.47
4.374,-0.17,-0.03,-0.44,0.47
4.375,-0.15,-0.05,-0.25,0.29
4.380,-0.09,-0.06,-0.15,0.18
4.384,-0.05,-0.07,-0.20,0.21
4.390,-0.08,-0.02,-0.35,0.36
4.396,-0.15,-0.01,-0.45,0.47
4.400,-0.19,-0.00,-0.43,0.47
4.406,-0.16,-0.03,-0.29,0.34
4.414,-0.14,-0.02,-0.15,0.21
4.416,-0.09,-0.01,-0.22,0.24
4.421,-0.18,-0.02,-0.31,0.36
4.426,-0.20,-0.03,-0.39,0.44
4.431,-0.16,-0.03,-0.37,0.40
4.436,-0.16,-0.05,-0.23,0.28
4.440,-0.14,-0.03,-0.18,0.23
4.450,-0.12,-0.00,-0.23,0.26
4.451,-0.14,-0.00,-0.31,0.35
4.456,-0.19,-0.01,-0.37,0.41
4.463,-0.17,-0.01,-0.31,0.35
4.467,-0.17,-0.03,-0.26,0.31
4.471,-0.17,-0.04,-0.22,0.28
4.477,-0.12,-0.03,-0.27,0.30
4.482,-0.13,-0.03,-0.32,0.35
4.486,-0.13,-0.04,-0.33,0.35
4.491,-0.14,-0.01,-0.31,0.34
4.496,-0.15,-0.02,-0.23,0.28
4.501,-0.16,-0.05,-0.22,0.27
4.506,-0.14,-0.04,-0.32,0.36
4.512,-0.12,-0.01,-0.37,0.39
4.516,-0.15,-0.03,-0.31,0.34
4.522,-0.15,-0.06,-0.23,0.28
4.527,-0.14,-0.05,-0.24,0.28
4.533,-0.18,-0.04,-0.29,0.34
4.536,-0.19,-0.04,-0.34,0.39
4.542,-0.16,-0.03,-0.38,0.41
4.547,-0.12,-0.02,-0.31,0.33
4.552,-0.12,-0.03,-0.21,0.24
4.557,-0.14,-0.02,-0.22,0.26
4.562,-0.15,-0.01,-0.29,0.32
4.571,-0.15,-0.01,-0.35,0.38
4.573,-0.11,-0.01,-0.38,0.39
4.584,-0.13,-0.03,-0.28,0.31
4.585,-0.12,-0.04,-0.19,0.23
4.587,-0.12,-0.03,-0.21,0.24
4.593,-0.16,-0.04,-0.34,0.38
4.598,-0.20,-0.03,-0.41,0.45
4.603,-0.18,-0.03,-0.35,0.39
4.607,-0.16,-0.06,-0.24,0.29
4.613,-0.14,-0.05,-0.17,0.23
4.618,-0.14,-0.05,-0.24,0.28
4.623,-0.16,-0.02,-0.32,0.35
4.628,-0.17,-0.01,-0.35,0.39
4.633,-0.16,0.00,-0.39,0.42
4.638,-0.15,-0.03,-0.24,0.28
4.643,-0.10,-0.03,-0.18,0.21
4.651,-0.11,-0.04,-0.24,0.27
4.654,-0.14,-0.01,-0.32,0.35
4.659,-0.15,-0.01,-0.37,0.40
4.663,-0.17,-0.02,-0.37,0.40
4.669,-0.14,-0.01,-0.24,0.28
4.676,-0.12,-0.04,-0.14,0.19
4.678,-0.13,-0.04,-0.22,0.26
4.684,-0.17,-0.03,-0.34,0.38
4.689,-0.20,-0.00,-0.35,0.41
4.694,-0.14,-0.04,-0.36,0.39
4.699,-0.14,-0.01,-0.25,0.29
4.704,-0.13,-0.04,-0.24,0.27
4.712,-0.13,-0.03,-0.26,0.29
4.715,-0.11,-0.06,-0.33,0.36
4.721,-0.16,-0.00,-0.35,0.39
4.724,-0.18,-0.03,-0.27,0.33
4.748,-0.17,-0.02,-0.23,0.29
4.749,-0.12,-0.01,-0.21,0.24
4.750,-0.02,-0.02,-0.27,0.27
4.751,-0.15,-0.01,-0.37,0.40
4.751,-0.11,-0.04,-0.29,0.32
4.755,-0.12,-0.06,-0.33,0.36
4.760,-0.11,-0.04,-0.30,0.32
4.764,-0.19,-0.04,-0.24,0.31
4.770,-0.12,-0.02,-0.36,0.38
4.775,-0.13,-0.04,-0.26,0.30
4.780,-0.15,-0.01,-0.29,0.32
4.785,-0.13,-0.03,-0.22,0.26
4.789,-0.19,-0.04,-0.31,0.37
4.795,-0.15,-0.06,-0.28,0.32
4.800,-0.17,-0.05,-0.31,0.36
4.806,-0.12,-0.02,-0.29,0.31
4.810,-0.07,-0.02,-0.31,0.31
4.816,-0.14,-0.07,-0.26,0.31
4.820,-0.18,0.00,-0.29,0.34
4.827,-0.11,-0.04,-0.29,0.31
4.834,-0.16,-0.05,-0.26,0.31
4.836,-0.14,-0.02,-0.29,0.32
4.840,-0.11,-0.02,-0.25,0.28
4.841,-0.13,-0.04,-0.26,0.29
4.861,-0.15,-0.04,-0.28,0.32
4.862,-0.15,-0.04,-0.34,0.38
4.863,-0.11,-0.01,-0.33,0.35
4.864,-0.13,-0.04,-0.33,0.36
4.865,-0.12,-0.04,-0.26,0.29
4.871,-0.11,-0.03,-0.22,0.25
4.877,-0.14,-0.02,-0.25,0.28
4.881,-0.16,0.00,-0.28,0.33
4.886,-0.18,-0.03,-0.37,0.41
4.892,-0.15,-0.06,-0.30,0.34
4.897,-0.14,-0.03,-0.25,0.29
4.901,-0.15,-0.03,-0.26,0.31
4.906,-0.16,-0.03,-0.31,0.35
4.911,-0.17,-0.03,-0.31,0.36
4.916,-0.13,-0.02,-0.36,0.38
4.921,-0.12,-0.01,-0.28,0.31
4.926,-0.12,-0.01,-0.24,0.27
4.931,-0.13,-0.02,-0.23,0.27
4.936,-0.15,-0.02,-0.28,0.32
4.941,-0.15,-0.03,-0.33,0.36
4.947,-0.15,-0.03,-0.35,0.39
4.952,-0.12,-0.05,-0.30,0.32
4.958,-0.10,-0.04,-0.27,0.29
4.962,-0.11,-0.03,-0.25,0.27
4.968,-0.14,-0.02,-0.31,0.34
5.003,-0.15,-0.00,-0.33,0.37
5.004,-0.16,-0.00,-0.32,0.36
5.005,-0.16,-0.01,-0.30,0.34
5.005,-0.13,-0.04,-0.26,0.30
5.006,-0.14,-0.05,-0.27,0.31
5.007,-0.15,-0.04,-0.30,0.34
5.008,-0.16,-0.04,-0.30,0.34
5.009,-0.18,-0.03,-0.33,0.37
5.013,-0.18,-0.02,-0.30,0.35
5.017,-0.18,-0.03,-0.25,0.31
5.022,-0.16,-0.06,-0.26,0.31
5.027,-0.14,-0.04,-0.26,0.30
5.032,-0.13,-0.04,-0.30,0.33
5.037,-0.16,-0.04,-0.29,0.33
5.042,-0.17,-0.02,-0.28,0.33
5.048,-0.16,-0.01,-0.32,0.36
5.053,-0.15,0.00,-0.32,0.35
5.059,-0.13,-0.01,-0.31,0.33
5.067,-0.12,-0.01,-0.31,0.33
5.068,-0.12,-0.04,-0.30,0.33
5.092,-0.14,-0.04,-0.27,0.31
5.093,-0.15,-0.05,-0.26,0.31
5.094,-0.15,-0.05,-0.26,0.30
5.095,-0.14,-0.04,-0.30,0.33
5.095,-0.14,-0.04,-0.29,0.33
5.099,-0.13,-0.04,-0.28,0.31
5.104,-0.14,-0.04,-0.27,0.31
5.109,-0.14,-0.02,-0.26,0.29
5.114,-0.15,-0.02,-0.29,0.33
5.120,-0.13,-0.04,-0.27,0.30
5.124,-0.11,-0.05,-0.27,0.30
5.129,-0.14,-0.02,-0.28,0.31
5.134,-0.13,-0.01,-0.28,0.31
5.139,-0.15,-0.02,-0.33,0.36
5.149,-0.14,-0.01,-0.32,0.35
5.151,-0.13,-0.08,-0.28,0.32
5.154,-0.12,-0.03,-0.26,0.29
5.159,-0.14,-0.02,-0.29,0.32
5.164,-0.18,-0.02,-0.31,0.36
5.170,-0.16,-0.02,-0.23,0.28
5.182,-0.14,-0.03,-0.30,0.33
5.184,-0.14,-0.06,-0.29,0.33
5.188,-0.14,-0.04,-0.33,0.36
5.213,-0.13,-0.01,-0.29,0.32
5.214,-0.11,-0.01,-0.26,0.28
5.215,-0.13,-0.04,-0.26,0.29
5.216,-0.15,-0.08,-0.32,0.36
5.216,-0.14,-0.01,-0.34,0.36
5.217,-0.14,-0.01,-0.30,0.33
5.219,-0.16,0.01,-0.30,0.34
5.225,-0.18,-0.00,-0.27,0.33
5.230,-0.14,-0.08,-0.29,0.33
5.234,-0.07,-0.04,-0.30,0.31
5.240,-0.16,-0.05,-0.30,0.34
5.249,-0.14,-0.04,-0.34,0.37
5.250,-0.11,-0.02,-0.29,0.31
5.256,-0.14,-0.02,-0.29,0.33
5.260,-0.14,-0.04,-0.27,0.31
5.265,-0.14,-0.05,-0.26,0.29
5.270,-0.12,0.00,-0.35,0.37
5.276,-0.18,-0.04,-0.29,0.34
5.281,-0.15,-0.04,-0.28,0.32
5.285,-0.08,-0.03,-0.29,0.30
5.291,-0.14,-0.05,-0.33,0.36
5.296,-0.16,-0.03,-0.30,0.34
5.301,-0.18,-0.04,-0.29,0.34
5.308,-0.16,-0.01,-0.33,0.36
5.309,-0.14,-0.03,-0.30,0.33
5.311,-0.11,-0.05,-0.24,0.27
5.317,-0.13,-0.05,-0.26,0.29
5.340,-0.14,-0.06,-0.30,0.33
5.341,-0.13,-0.01,-0.30,0.32
5.342,-0.13,-0.03,-0.28,0.31
5.343,-0.10,-0.05,-0.25,0.28
5.344,-0.16,-0.04,-0.31,0.35
5.346,-0.17,-0.02,-0.29,0.34
5.351,-0.17,-0.03,-0.31,0.35
5.357,-0.16,-0.05,-0.28,0.32
5.362,-0.14,-0.00,-0.27,0.31
5.366,-0.12,-0.04,-0.28,0.31
5.372,-0.13,-0.04,-0.29,0.32
5.377,-0.12,-0.01,-0.30,0.32
5.381,-0.14,-0.00,-0.32,0.35
5.385,-0.16,-0.04,-0.30,0.34
5.397,-0.16,-0.03,-0.27,0.31
5.398,-0.13,-0.03,-0.28,0.31
5.401,-0.14,-0.05,-0.30,0.34
5.407,-0.18,-0.03,-0.29,0.34
5.412,-0.16,-0.01,-0.28,0.32
5.417,-0.16,-0.02,-0.29,0.33
5.422,-0.14,-0.03,-0.31,0.34
5.427,-0.16,-0.01,-0.30,0.34
5.432,-0.18,-0.01,-0.29,0.34
5.439,-0.16,-0.02,-0.29,0.34
5.443,-0.12,-0.03,-0.30,0.33
5.447,-0.12,-0.03,-0.26,0.29
5.452,-0.13,-0.03,-0.24,0.27
5.460,-0.14,-0.01,-0.27,0.31
5.463,-0.16,-0.01,-0.31,0.34
5.468,-0.13,-0.01,-0.34,0.36
5.493,-0.13,-0.02,-0.33,0.35
5.494,-0.12,-0.01,-0.29,0.31
5.496,-0.11,-0.00,-0.28,0.30
5.497,-0.13,-0.03,-0.29,0.32
5.498,-0.16,-0.02,-0.32,0.36
5.498,-0.14,-0.03,-0.32,0.35
5.506,-0.10,-0.04,-0.30,0.32
5.510,-0.15,-0.03,-0.27,0.31
5.513,-0.14,-0.05,-0.29,0.32
5.518,-0.12,-0.07,-0.30,0.33
5.524,-0.14,-0.04,-0.30,0.33
5.528,-0.15,-0.03,-0.28,0.32
5.533,-0.16,0.00,-0.29,0.33
5.539,-0.14,-0.02,-0.32,0.35
5.544,-0.14,-0.02,-0.26,0.29
5.549,-0.12,-0.03,-0.22,0.25
5.555,-0.15,-0.03,-0.30,0.34
5.561,-0.12,-0.01,-0.32,0.34
5.565,-0.14,-0.03,-0.31,0.34
5.568,-0.16,-0.05,-0.28,0.32
5.574,-0.15,-0.05,-0.31,0.35
5.579,-0.08,-0.03,-0.28,0.29
5.584,-0.10,-0.04,-0.29,0.31
5.592,-0.17,-0.03,-0.33,0.37
5.594,-0.13,-0.02,-0.26,0.29
5.598,-0.11,-0.04,-0.28,0.31
5.625,-0.15,-0.03,-0.29,0.32
5.629,-0.11,-0.02,-0.29,0.31
5.630,-0.17,-0.01,-0.29,0.33
5.632,-0.12,-0.02,-0.33,0.35
5.633,-0.16,-0.03,-0.31,0.35
5.634,-0.16,-0.04,-0.29,0.33
5.636,-0.13,-0.02,-0.26,0.29
5.641,-0.08,-0.04,-0.28,0.29
5.645,-0.12,-0.04,-0.30,0.32
5.649,-0.14,0.00,-0.31,0.34
5.654,-0.11,-0.03,-0.31,0.33
5.661,-0.16,0.01,-0.26,0.31
5.664,-0.12,-0.03,-0.31,0.34
5.670,-0.18,-0.06,-0.33,0.38
5.675,-0.16,-0.04,-0.27,0.31
5.679,-0.19,-0.01,-0.32,0.38
5.684,-0.13,-0.03,-0.28,0.31
5.689,-0.13,-0.05,-0.29,0.32
5.695,-0.12,-0.01,-0.31,0.33
5.699,-0.11,-0.02,-0.29,0.31
5.705,-0.15,0.02,-0.38,0.41
5.710,-0.21,-0.01,-0.33,0.39
5.716,-0.15,-0.01,-0.34,0.37
5.734,-0.08,-0.00,-0.27,0.28
5.735,-0.14,-0.04,-0.29,0.33
5.735,-0.15,-0.06,-0.31,0.35
5.736,-0.12,-0.02,-0.34,0.36
5.740,-0.16,-0.03,-0.31,0.36
5.746,-0.14,-0.02,-0.27,0.30
5.750,-0.15,-0.04,-0.28,0.33
5.757,-0.14,-0.03,-0.27,0.30
5.761,-0.09,-0.01,-0.31,0.32
5.766,-0.10,-0.03,-0.29,0.31
5.771,-0.17,-0.04,-0.28,0.33
5.772,-0.14,-0.02,-0.24,0.28
5.776,-0.14,-0.04,-0.22,0.27
5.781,-0.14,-0.02,-0.25,0.28
5.787,-0.15,-0.00,-0.32,0.35
5.792,-0.18,-0.04,-0.36,0.40
5.797,-0.13,-0.05,-0.32,0.35
5.803,-0.12,-0.04,-0.30,0.33
5.809,-0.17,-0.04,-0.28,0.33
5.811,-0.19,-0.02,-0.31,0.36
5.816,-0.14,-0.01,-0.28,0.31
5.823,-0.15,-0.02,-0.28,0.32
5.827,-0.15,-0.04,-0.29,0.33
5.832,-0.14,-0.01,-0.30,0.33
5.841,-0.13,-0.03,-0.27,0.30
5.842,-0.13,-0.04,-0.31,0.34
5.847,-0.12,-0.03,-0.34,0.37
5.881,-0.15,-0.03,-0.32,0.36
5.882,-0.15,-0.03,-0.32,0.36
5.883,-0.14,-0.03,-0.29,0.32
5.884,-0.16,-0.02,-0.27,0.32
5.884,-0.18,0.01,-0.30,0.35
5.885,-0.16,-0.05,-0.32,0.37
5.886,-0.13,-0.07,-0.26,0.30
5.892,-0.16,-0.03,-0.26,0.31
5.893,-0.17,-0.01,-0.29,0.34
5.897,-0.14,-0.01,-0.24,0.28
5.903,-0.14,-0.01,-0.27,0.30
5.909,-0.15,-0.02,-0.30,0.34
5.913,-0.14,-0.04,-0.29,0.32
5.917,-0.18,-0.02,-0.28,0.33
5.923,-0.15,-0.01,-0.30,0.34
5.927,-0.10,-0.01,-0.29,0.31
5.932,-0.10,-0.00,-0.26,0.28
5.938,-0.10,-0.04,-0.27,0.29
5.942,-0.14,-0.05,-0.28,0.31
5.948,-0.16,-0.03,-0.28,0.32
5.953,-0.17,-0.00,-0.29,0.33
5.959,-0.16,-0.00,-0.27,0.31
5.963,-0.13,-0.03,-0.26,0.29
5.971,-0.13,-0.04,-0.28,0.31
5.974,-0.15,-0.03,-0.29,0.32
6.007,-0.12,-0.03,-0.29,0.31
6.009,-0.11,-0.03,-0.27,0.29
6.010,-0.14,-0.04,-0.26,0.30
6.011,-0.14,-0.03,-0.28,0.31
6.012,-0.10,-0.03,-0.23,0.25
6.013,-0.13,-0.03,-0.22,0.26
6.014,-0.15,-0.04,-0.27,0.31
6.014,-0.14,-0.05,-0.27,0.31
6.019,-0.14,-0.03,-0.29,0.33
6.024,-0.15,-0.05,-0.31,0.34
6.028,-0.11,-0.02,-0.33,0.35
6.035,-0.11,-0.03,-0.33,0.35
6.040,-0.12,-0.04,-0.32,0.34
6.043,-0.12,-0.02,-0.31,0.34
6.049,-0.13,-0.01,-0.30,0.33
6.054,-0.12,-0.03,-0.29,0.32
6.059,-0.11,-0.05,-0.31,0.33
6.064,-0.14,-0.02,-0.28,0.31
6.070,-0.20,-0.01,-0.29,0.35
6.075,-0.14,-0.00,-0.28,0.31
6.079,-0.14,-0.06,-0.27,0.31
6.107,-0.16,-0.03,-0.27,0.32
6.108,-0.15,-0.03,-0.28,0.32
6.109,-0.17,-0.02,-0.28,0.33
6.110,-0.11,-0.02,-0.32,0.34
6.110,-0.16,-0.01,-0.32,0.36
6.111,-0.12,-0.01,-0.30,0.32
6.114,-0.14,-0.01,-0.33,0.36
6.121,-0.17,-0.06,-0.37,0.42
6.125,-0.14,-0.02,-0.31,0.34
6.130,-0.11,-0.01,-0.25,0.28
6.136,-0.15,-0.03,-0.30,0.34
6.140,-0.12,-0.04,-0.29,0.32
6.145,-0.14,-0.03,-0.32,0.35
6.151,-0.10,-0.07,-0.31,0.33
6.156,-0.17,-0.02,-0.29,0.34
6.160,-0.15,-0.04,-0.27,0.31
6.165,-0.13,-0.05,-0.27,0.31
6.170,-0.19,0.02,-0.31,0.36
6.176,-0.13,-0.01,-0.33,0.36
6.181,-0.11,-0.06,-0.30,0.32
6.186,-0.15,-0.02,-0.26,0.30
6.191,-0.13,-0.04,-0.31,0.34
6.196,-0.14,-0.04,-0.30,0.33
6.223,-0.12,-0.04,-0.29,0.32
6.225,-0.18,-0.05,-0.28,0.34
6.225,-0.17,-0.02,-0.24,0.29
6.226,-0.16,-0.02,-0.30,0.34
6.227,-0.10,-0.04,-0.26,0.28
6.228,-0.15,-0.03,-0.28,0.32
6.231,-0.17,-0.03,-0.31,0.35
6.238,-0.13,-0.02,-0.30,0.32
6.239,-0.17,-0.05,-0.30,0.35
6.241,-0.14,-0.02,-0.26,0.29
6.246,-0.14,-0.00,-0.31,0.34
6.252,-0.16,-0.05,-0.32,0.36
6.257,-0.15,-0.01,-0.35,0.38
6.261,-0.11,-0.02,-0.34,0.36
6.267,-0.16,-0.01,-0.28,0.32
6.272,-0.16,-0.05,-0.25,0.30
6.276,-0.14,-0.02,-0.29,0.33
6.281,-0.13,-0.01,-0.32,0.35
6.287,-0.14,-0.02,-0.29,0.33
6.291,-0.17,-0.04,-0.30,0.35
6.296,-0.16,-0.04,-0.30,0.34
6.305,-0.16,-0.01,-0.29,0.33
6.307,-0.15,-0.02,-0.28,0.32
6.311,-0.12,-0.03,-0.30,0.33
6.342,-0.13,-0.04,-0.28,0.31
6.343,-0.17,-0.02,-0.32,0.36
6.344,-0.14,-0.03,-0.29,0.33
6.345,-0.15,-0.03,-0.25,0.30
6.346,-0.16,-0.04,-0.28,0.33
6.346,-0.14,-0.02,-0.30,0.33
6.347,-0.15,-0.00,-0.29,0.32
6.355,-0.15,-0.00,-0.28,0.32
6.358,-0.13,-0.03,-0.26,0.29
6.363,-0.14,-0.02,-0.27,0.31
6.369,-0.15,-0.00,-0.31,0.34
6.373,-0.15,-0.01,-0.31,0.34
6.378,-0.15,0.00,-0.27,0.31
6.383,-0.17,-0.00,-0.24,0.29
6.388,-0.16,-0.01,-0.24,0.29
6.391,-0.11,-0.00,-0.27,0.30
6.397,-0.10,-0.02,-0.28,0.30
6.403,-0.12,-0.03,-0.28,0.31
6.407,-0.15,-0.03,-0.29,0.33
6.412,-0.14,-0.03,-0.30,0.34
6.417,-0.13,-0.04,-0.30,0.34
6.422,-0.15,-0.04,-0.28,0.33
6.427,-0.16,-0.03,-0.26,0.31
6.433,-0.17,-0.04,-0.29,0.34
6.440,-0.15,-0.04,-0.34,0.37
6.443,-0.13,-0.03,-0.33,0.35
6.450,-0.14,-0.02,-0.31,0.34
6.454,-0.15,-0.01,-0.30,0.33
6.483,-0.17,-0.03,-0.28,0.33
6.485,-0.13,-0.03,-0.28,0.31
6.486,-0.13,-0.02,-0.31,0.34
6.487,-0.14,-0.04,-0.30,0.33
6.487,-0.15,-0.01,-0.29,0.33
6.488,-0.12,-0.04,-0.31,0.33
6.489,-0.13,-0.03,-0.27,0.30
6.494,-0.14,-0.03,-0.30,0.34
6.499,-0.15,-0.05,-0.28,0.32
6.504,-0.16,-0.06,-0.29,0.33
6.508,-0.14,-0.02,-0.24,0.28
6.516,-0.15,-0.00,-0.31,0.34
6.519,-0.19,0.02,-0.29,0.34
6.524,-0.15,0.00,-0.31,0.34
6.528,-0.12,-0.02,-0.33,0.35
6.535,-0.14,-0.03,-0.31,0.34
6.539,-0.14,-0.03,-0.23,0.27
6.544,-0.18,-0.03,-0.25,0.31
6.550,-0.20,-0.01,-0.26,0.33
6.555,-0.14,-0.03,-0.30,0.33
6.559,-0.12,-0.04,-0.27,0.30
6.567,-0.13,-0.02,-0.31,0.33
6.570,-0.16,-0.03,-0.27,0.32
6.574,-0.13,-0.07,-0.28,0.32
6.579,-0.13,-0.02,-0.34,0.36
6.603,-0.15,-0.03,-0.34,0.37
6.604,-0.16,-0.05,-0.23,0.29
6.605,-0.13,-0.03,-0.28,0.31
6.606,-0.16,-0.05,-0.25,0.30
6.607,-0.12,-0.08,-0.31,0.34
6.611,-0.12,-0.02,-0.26,0.29
6.616,-0.19,-0.03,-0.32,0.37
6.621,-0.13,-0.05,-0.32,0.35
6.625,-0.17,-0.03,-0.29,0.34
6.632,-0.17,0.01,-0.26,0.31
6.637,-0.14,-0.05,-0.29,0.33
6.641,-0.13,-0.01,-0.29,0.32
6.645,-0.13,-0.03,-0.26,0.30
6.651,-0.18,-0.01,-0.31,0.36
6.655,-0.14,0.01,-0.28,0.31
6.661,-0.17,-0.04,-0.30,0.34
6.666,-0.18,-0.03,-0.24,0.30
6.670,-0.14,-0.01,-0.28,0.31
6.676,-0.19,-0.04,-0.33,0.38
6.686,-0.12,-0.02,-0.28,0.31
6.689,-0.14,-0.06,-0.29,0.33
6.692,-0.16,-0.04,-0.30,0.34
6.697,-0.14,-0.02,-0.31,0.34
6.697,-0.13,-0.05,-0.30,0.34
6.711,-0.16,-0.02,-0.29,0.33
6.712,-0.09,-0.03,-0.28,0.29
6.713,-0.10,-0.02,-0.28,0.30
6.719,-0.10,-0.03,-0.31,0.33
6.722,-0.13,-0.01,-0.30,0.33
6.727,-0.14,-0.01,-0.31,0.34
6.737,-0.17,-0.02,-0.30,0.35
6.738,-0.14,-0.01,-0.27,0.30
6.743,-0.17,-0.02,-0.27,0.32
6.749,-0.12,-0.03,-0.29,0.32
6.753,-0.15,-0.03,-0.30,0.34
6.757,-0.13,-0.01,-0.32,0.35
6.765,-0.15,-0.04,-0.33,0.36
6.766,-0.15,-0.01,-0.29,0.33
6.772,-0.13,-0.01,-0.27,0.30
6.778,-0.12,-0.03,-0.30,0.32
6.782,-0.16,-0.06,-0.30,0.34
6.787,-0.16,-0.05,-0.27,0.31
6.794,-0.13,-0.04,-0.29,0.32
6.798,-0.12,-0.03,-0.33,0.35
6.804,-0.13,-0.03,-0.33,0.35
6.808,-0.16,-0.04,-0.33,0.37
6.812,-0.18,-0.04,-0.32,0.37
6.822,-0.17,-0.03,-0.29,0.34
6.825,-0.15,-0.02,-0.28,0.32
6.828,-0.14,-0.04,-0.25,0.29
6.855,-0.16,-0.02,-0.27,0.31
6.856,-0.17,-0.01,-0.33,0.37
6.857,-0.14,-0.03,-0.31,0.34
6.857,-0.15,-0.01,-0.29,0.33
6.858,-0.15,0.00,-0.28,0.32
6.859,-0.16,-0.02,-0.26,0.30
6.865,-0.17,-0.01,-0.30,0.34
6.870,-0.15,-0.02,-0.32,0.35
6.874,-0.15,-0.02,-0.27,0.31
6.885,-0.15,-0.02,-0.26,0.30
6.886,-0.12,-0.06,-0.26,0.30
6.889,-0.11,-0.05,-0.27,0.29
6.893,-0.12,-0.02,-0.30,0.33
6.899,-0.15,-0.02,-0.33,0.36
6.904,-0.15,-0.01,-0.30,0.34
6.918,-0.15,-0.01,-0.27,0.31
6.919,-0.18,-0.03,-0.24,0.30
6.925,-0.16,-0.05,-0.25,0.31
6.926,-0.12,-0.04,-0.29,0.32
6.962,-0.13,-0.02,-0.30,0.33
6.963,-0.14,-0.02,-0.30,0.34
6.963,-0.13,-0.03,-0.29,0.32
6.964,-0.12,-0.02,-0.31,0.33
6.965,-0.15,-0.02,-0.28,0.31
6.966,-0.14,-0.03,-0.32,0.35
6.966,-0.16,-0.02,-0.31,0.35
6.967,-0.17,-0.04,-0.23,0.29
6.977,-0.17,-0.06,-0.24,0.30
6.978,-0.13,-0.04,-0.27,0.30
6.982,-0.11,-0.05,-0.25,0.28
6.986,-0.11,-0.02,-0.27,0.29
6.990,-0.15,-0.00,-0.31,0.35
6.998,-0.14,-0.01,-0.23,0.27
7.005,-0.16,-0.02,-0.23,0.28
7.006,-0.15,-0.03,-0.29,0.33
7.010,-0.13,-0.03,-0.31,0.34
7.015,-0.12,-0.02,-0.21,0.25
7.023,-0.16,-0.03,-0.28,0.32
7.025,-0.16,-0.02,-0.31,0.35
7.037,-0.15,-0.03,-0.24,0.28
7.038,-0.18,-0.04,-0.28,0.34
7.041,-0.15,-0.05,-0.29,0.33
7.050,-0.16,-0.01,-0.31,0.35
7.051,-0.17,-0.02,-0.33,0.37
7.056,-0.13,-0.02,-0.27,0.30
7.088,-0.12,-0.02,-0.20,0.24
7.089,-0.10,-0.04,-0.30,0.32
7.091,-0.14,-0.01,-0.30,0.33
7.093,-0.10,-0.02,-0.30,0.32
7.095,-0.14,0.01,-0.30,0.33
7.096,-0.15,-0.05,-0.27,0.32
7.097,-0.17,-0.02,-0.24,0.29
7.099,-0.11,0.00,-0.27,0.30
7.103,-0.12,-0.01,-0.26,0.28
7.106,-0.16,-0.03,-0.31,0.36
7.114,-0.15,-0.01,-0.31,0.34
7.119,-0.16,-0.00,-0.27,0.32
7.130,-0.15,-0.03,-0.26,0.31
7.131,-0.15,-0.01,-0.27,0.31
7.131,-0.17,-0.04,-0.26,0.32
7.136,-0.11,0.00,-0.33,0.35
7.142,-0.16,-0.05,-0.28,0.32
7.146,-0.14,-0.02,-0.27,0.31
7.160,-0.18,-0.04,-0.31,0.36
7.167,-0.17,-0.03,-0.29,0.33
7.168,-0.18,-0.00,-0.29,0.35
7.168,-0.10,-0.03,-0.28,0.30
7.169,-0.11,-0.06,-0.33,0.36
7.172,-0.13,-0.01,-0.27,0.30
7.176,-0.15,-0.04,-0.29,0.33
7.183,-0.15,-0.04,-0.28,0.32
7.186,-0.12,-0.01,-0.29,0.32
7.194,-0.16,-0.00,-0.27,0.32
7.217,-0.15,-0.02,-0.32,0.35
7.218,-0.15,-0.04,-0.24,0.29
7.219,-0.17,-0.03,-0.24,0.30
7.220,-0.15,-0.01,-0.29,0.32
7.221,-0.15,-0.04,-0.29,0.33
7.221,-0.16,-0.03,-0.34,0.38
7.228,-0.13,0.00,-0.29,0.32
7.233,-0.13,-0.02,-0.27,0.30
7.237,-0.12,-0.02,-0.27,0.30
7.243,-0.13,-0.01,-0.27,0.30
7.247,-0.15,-0.02,-0.26,0.30
7.251,-0.15,-0.01,-0.26,0.30
7.258,-0.18,-0.01,-0.29,0.35
7.263,-0.17,0.00,-0.25,0.30
7.267,-0.13,0.00,-0.25,0.28
7.273,-0.13,-0.01,-0.28,0.31
7.280,-0.16,-0.04,-0.30,0.34
7.285,-0.14,-0.05,-0.29,0.33
7.288,-0.14,-0.03,-0.28,0.31
7.293,-0.18,-0.02,-0.27,0.32
7.300,-0.18,-0.04,-0.28,0.34
7.303,-0.16,-0.04,-0.30,0.34
7.308,-0.15,-0.03,-0.27,0.31
7.326,-0.14,-0.02,-0.27,0.31
7.327,-0.13,-0.02,-0.29,0.32
7.328,-0.12,-0.01,-0.27,0.30
7.329,-0.12,-0.03,-0.28,0.30
7.335,-0.10,-0.04,-0.29,0.31
7.339,-0.11,-0.02,-0.31,0.34
7.343,-0.10,-0.02,-0.32,0.34
7.350,-0.11,-0.04,-0.32,0.34
7.354,-0.19,-0.03,-0.26,0.33
7.358,-0.16,-0.01,-0.22,0.27
7.364,-0.14,-0.03,-0.30,0.33
7.369,-0.14,-0.05,-0.32,0.35
7.374,-0.13,-0.03,-0.28,0.32
7.378,-0.13,0.01,-0.25,0.28
7.384,-0.13,-0.02,-0.27,0.30
7.389,-0.14,-0.01,-0.27,0.30
7.396,-0.14,-0.03,-0.28,0.31
7.401,-0.16,-0.03,-0.31,0.35
7.405,-0.18,-0.03,-0.30,0.35
7.409,-0.16,-0.04,-0.29,0.33
7.419,-0.10,-0.06,-0.29,0.31
7.420,-0.13,-0.04,-0.27,0.30
7.424,-0.13,-0.01,-0.29,0.32
7.451,-0.14,-0.02,-0.29,0.32
7.452,-0.16,-0.03,-0.31,0.35
7.453,-0.17,-0.03,-0.27,0.32
7.454,-0.13,-0.03,-0.28,0.31
7.455,-0.16,-0.04,-0.34,0.38
7.456,-0.15,-0.05,-0.32,0.36
7.463,-0.14,-0.02,-0.26,0.30
7.467,-0.09,-0.04,-0.27,0.29
7.470,-0.14,-0.03,-0.30,0.33
7.475,-0.15,-0.05,-0.31,0.35
7.481,-0.14,-0.01,-0.29,0.33
7.486,-0.12,0.00,-0.26,0.29
7.490,-0.11,-0.04,-0.29,0.32
7.496,-0.18,-0.03,-0.29,0.34
7.500,-0.12,-0.03,-0.31,0.34
7.506,-0.18,-0.06,-0.29,0.35
7.514,-0.10,-0.02,-0.25,0.27
7.517,-0.15,-0.02,-0.24,0.29
7.520,-0.14,-0.02,-0.31,0.34
7.524,-0.15,-0.08,-0.32,0.36
7.539,-0.19,0.00,-0.26,0.33
7.540,-0.17,-0.02,-0.29,0.33
7.541,-0.16,-0.07,-0.25,0.31
7.548,-0.10,-0.00,-0.28,0.30
7.551,-0.12,-0.00,-0.26,0.29
7.555,-0.11,-0.01,-0.27,0.30
7.563,-0.10,-0.02,-0.28,0.30
7.566,-0.17,-0.02,-0.31,0.36
7.571,-0.21,-0.03,-0.30,0.36
7.578,-0.09,-0.01,-0.30,0.31
7.581,-0.15,-0.02,-0.27,0.31
7.587,-0.14,-0.01,-0.29,0.33
7.590,-0.14,-0.00,-0.27,0.30
7.597,-0.15,-0.03,-0.28,0.31
7.601,-0.15,-0.02,-0.27,0.31
7.606,-0.15,-0.04,-0.32,0.35
7.613,-0.17,-0.02,-0.26,0.31
7.616,-0.08,-0.05,-0.31,0.32
7.622,-0.12,-0.03,-0.28,0.30
7.631,-0.14,-0.03,-0.28,0.32
7.632,-0.15,-0.05,-0.32,0.35
7.632,-0.12,-0.02,-0.28,0.31
7.637,-0.15,-0.01,-0.28,0.32
7.640,-0.15,-0.02,-0.30,0.34
7.656,-0.15,-0.06,-0.26,0.31
7.657,-0.11,-0.04,-0.27,0.30
7.658,-0.15,-0.02,-0.31,0.35
7.662,-0.14,-0.02,-0.30,0.33
7.667,-0.14,-0.03,-0.28,0.31
7.671,-0.15,-0.02,-0.25,0.29
7.680,-0.14,-0.02,-0.26,0.30
7.681,-0.16,-0.02,-0.30,0.34
7.687,-0.14,-0.04,-0.30,0.34
7.694,-0.10,-0.02,-0.29,0.31
7.698,-0.18,-0.01,-0.31,0.36
7.703,-0.15,-0.02,-0.30,0.33
7.707,-0.13,-0.05,-0.29,0.33
7.713,-0.16,-0.02,-0.29,0.33
7.718,-0.14,-0.00,-0.28,0.32
7.722,-0.08,-0.04,-0.27,0.29
7.729,-0.11,-0.04,-0.28,0.30
7.733,-0.16,-0.03,-0.27,0.31
7.741,-0.15,-0.01,-0.29,0.33
7.747,-0.13,-0.03,-0.30,0.33
7.748,-0.14,-0.02,-0.31,0.34
7.757,-0.15,-0.02,-0.29,0.33
7.762,-0.16,-0.04,-0.23,0.28
7.763,-0.17,-0.02,-0.25,0.30
7.769,-0.16,-0.02,-0.27,0.31
7.773,-0.18,-0.03,-0.30,0.35
7.780,-0.17,-0.03,-0.30,0.35
7.785,-0.15,-0.03,-0.30,0.34
7.788,-0.13,-0.03,-0.31,0.34
7.813,-0.12,-0.02,-0.29,0.31
7.814,-0.13,-0.02,-0.31,0.34
7.817,-0.13,-0.04,-0.33,0.36
7.818,-0.13,-0.05,-0.35,0.37
7.820,-0.15,-0.02,-0.33,0.36
7.821,-0.17,-0.02,-0.27,0.32
7.825,-0.15,-0.03,-0.27,0.31
7.830,-0.16,-0.02,-0.29,0.33
7.833,-0.16,-0.03,-0.31,0.35
7.838,-0.17,-0.02,-0.33,0.37
7.845,-0.17,-0.04,-0.29,0.34
7.848,-0.16,-0.06,-0.29,0.34
7.854,-0.15,-0.04,-0.28,0.32
7.858,-0.15,-0.01,-0.29,0.33
7.863,-0.14,-0.00,-0.29,0.32
7.869,-0.15,-0.02,-0.31,0.35
7.875,-0.10,-0.02,-0.32,0.33
7.881,-0.13,-0.02,-0.31,0.34
7.885,-0.15,-0.03,-0.28,0.32
7.890,-0.13,-0.03,-0.31,0.34
7.895,-0.13,-0.01,-0.30,0.33
7.899,-0.10,-0.03,-0.28,0.30
7.904,-0.16,-0.04,-0.30,0.34
7.923,-0.15,-0.02,-0.30,0.34
7.924,-0.15,-0.04,-0.32,0.35
7.924,-0.15,-0.04,-0.30,0.34
7.925,-0.15,-0.06,-0.29,0.33
7.930,-0.17,-0.03,-0.29,0.34
7.935,-0.13,-0.04,-0.31,0.34
7.939,-0.13,-0.01,-0.26,0.30
7.946,-0.12,-0.03,-0.29,0.32
7.950,-0.16,-0.05,-0.29,0.33
7.956,-0.17,-0.04,-0.33,0.37
7.960,-0.13,-0.01,-0.29,0.32
7.965,-0.15,-0.03,-0.30,0.34
7.970,-0.15,-0.02,-0.25,0.29
7.975,-0.16,-0.05,-0.30,0.34
7.981,-0.15,-0.03,-0.32,0.36
7.985,-0.07,-0.02,-0.35,0.36
7.992,-0.18,-0.03,-0.23,0.30
7.996,-0.18,-0.01,-0.29,0.34
8.001,-0.32,0.03,-0.19,0.37
8.005,-0.60,0.14,-0.27,0.67
8.012,-0.68,0.18,-0.27,0.76
8.018,-0.78,0.21,-0.28,0.85
8.020,-0.84,0.21,-0.35,0.94
8.048,-0.50,0.10,-0.51,0.72
8.049,-0.20,-0.01,-0.06,0.20
8.050,-0.28,0.02,-0.31,0.42
8.050,-0.31,0.04,-0.18,0.36
8.051,-0.28,0.02,-0.20,0.34
8.052,-0.10,-0.05,-0.23,0.26
8.059,0.24,-0.11,-0.32,0.41
8.063,0.31,-0.14,-0.31,0.46
8.066,2.26,-0.75,0.27,2.39
8.071,-0.25,-0.04,-0.24,0.35
8.077,-0.60,0.19,-0.34,0.72
8.082,-0.36,0.07,-0.23,0.43
8.087,-0.39,-0.03,-0.31,0.50
8.087,-0.41,0.01,-0.34,0.53
8.091,-0.30,0.05,-0.27,0.41
8.097,-0.31,0.05,-0.22,0.38
8.103,-0.35,0.08,-0.27,0.45
8.112,-0.43,0.19,-0.22,0.51
8.113,-0.47,0.24,-0.21,0.57
8.117,-0.51,0.26,-0.21,0.61
8.121,-0.62,0.27,-0.19,0.70
8.137,-0.69,0.22,-0.22,0.76
8.138,-0.42,-0.10,-0.53,0.68
8.139,-0.08,-0.31,-0.36,0.48
8.143,-0.20,-0.28,-0.25,0.43
8.149,-0.36,-0.06,-0.22,0.43
8.153,-0.37,0.06,-0.21,0.43
8.157,-0.36,0.08,-0.24,0.44
8.163,-0.35,0.09,-0.29,0.46
8.167,-0.40,0.05,-0.31,0.50
8.175,-0.43,0.08,-0.28,0.52
8.178,-0.42,0.08,-0.27,0.51
8.183,-0.40,0.06,-0.26,0.48
8.188,-0.37,0.04,-0.28,0.47
8.194,-0.37,0.03,-0.29,0.47
8.198,-0.38,0.01,-0.31,0.49
8.203,-0.41,-0.00,-0.34,0.53
8.208,-0.40,-0.04,-0.32,0.52
8.213,-0.38,-0.07,-0.30,0.49
8.219,-0.32,-0.09,-0.31,0.45
8.225,0.15,-0.31,-0.35,0.50
8.233,-0.08,0.11,-0.96,0.97
8.234,-0.81,0.34,-0.79,1.19
8.237,-0.62,0.14,-0.14,0.65
8.261,-0.30,0.12,-0.07,0.33
8.262,-0.41,0.13,-0.07,0.44
8.263,-0.53,0.20,-0.19,0.60
8.264,-0.52,0.21,-0.39,0.69
8.264,-0.47,0.16,-0.40,0.64
8.269,-0.63,0.19,-0.23,0.70
8.276,-0.79,0.29,-0.12,0.85
8.279,-0.62,0.28,-0.15,0.70
8.284,-0.38,0.18,-0.27,0.50
8.290,-0.34,0.08,-0.39,0.52
8.294,-0.39,0.03,-0.33,0.51
8.300,-0.39,0.05,-0.23,0.46
8.304,-0.43,0.08,-0.22,0.49
8.310,-0.44,0.05,-0.24,0.50
8.315,-0.42,0.02,-0.26,0.49
8.319,-0.36,0.06,-0.30,0.47
8.325,-0.32,0.06,-0.28,0.43
8.329,-0.35,0.05,-0.25,0.43
8.334,-0.43,0.06,-0.27,0.51
8.338,-0.45,0.02,-0.38,0.59
8.345,-0.41,-0.01,-0.41,0.58
8.349,-0.34,-0.04,-0.29,0.45
8.353,-0.33,-0.04,-0.17,0.37
8.359,-0.39,0.08,-0.24,0.47
8.364,-0.44,0.39,-0.43,0.72
8.369,-0.46,0.47,-0.44,0.79
8.374,-0.23,-0.29,-0.28,0.47
8.379,-0.32,-0.31,-0.07,0.45
8.384,-0.37,-0.04,-0.29,0.47
8.396,-0.50,0.36,-0.16,0.64
8.400,-0.19,0.20,0.04,0.28
8.401,-0.44,-0.17,-0.06,0.47
8.404,-0.55,0.13,-0.26,0.62
8.410,-0.44,0.17,-0.46,0.66
8.415,-0.45,0.01,-0.24,0.51
8.419,-0.33,0.00,-0.13,0.35
8.426,-0.52,0.11,-0.11,0.54
8.430,-0.50,0.08,-0.10,0.52
8.435,-0.44,0.15,-0.32,0.56
8.440,-0.44,0.62,-0.34,0.83
8.445,-0.81,1.24,-1.10,1.84
8.450,0.94,-0.39,-0.85,1.32
8.456,0.92,0.95,0.16,1.33
8.460,0.20,0.79,-0.39,0.91
8.465,-1.25,0.11,0.07,1.26
8.472,-0.01,-1.16,-0.03,1.16
8.480,0.38,-1.46,-0.65,1.64
8.481,-1.42,-0.49,0.52,1.59
8.486,-1.51,0.38,-0.57,1.66
8.492,0.09,0.89,-2.03,2.21
8.496,0.46,1.48,-1.10,1.90
8.500,0.90,1.11,-0.06,1.43
8.506,1.32,0.61,-0.44,1.52
8.511,-1.51,-1.78,7.94,8.28
8.516,-1.07,1.05,2.38,2.81
8.534,-1.33,0.35,-1.75,2.23
8.536,-1.45,0.29,0.68,1.63
8.537,-0.39,0.95,-2.85,3.03
8.538,-0.90,-0.77,-0.67,1.36
8.541,-0.88,-1.03,-0.93,1.64
8.545,-0.44,-0.91,0.34,1.06
8.550,0.02,-0.97,0.39,1.04
8.551,-0.01,-1.14,-0.15,1.15
8.557,-0.63,-0.93,-0.39,1.19
8.561,-1.11,-0.67,-0.53,1.40
8.566,-1.23,-0.38,-0.29,1.32
8.571,-0.81,-0.21,-0.41,0.93
8.576,-0.52,-0.04,-0.25,0.58
8.581,-0.34,0.03,-0.11,0.36
8.587,-0.34,0.02,0.03,0.35
8.592,-0.38,-0.01,-0.13,0.41
8.597,-0.34,0.05,-0.44,0.56
8.602,0.02,0.33,-0.59,0.68
8.609,0.08,0.59,-0.41,0.72
8.611,-0.13,0.67,-0.19,0.71
8.617,-0.24,0.51,-0.27,0.63
8.623,-0.33,0.14,-0.51,0.62
8.627,-0.55,-0.36,-0.48,0.81
8.632,-0.73,-0.61,-0.40,1.03
8.641,-0.30,-0.58,-0.34,0.73
8.643,0.50,-0.29,-0.26,0.63
8.647,0.88,-0.13,-0.18,0.91
8.678,0.32,-0.16,-0.19,0.41
8.679,-0.65,-0.20,-0.09,0.68
8.680,-1.05,-0.19,-0.13,1.08
8.681,-0.89,-0.40,-0.20,1.00
8.682,-0.94,-0.40,-0.12,1.03
8.682,-0.92,-0.14,-0.19,0.94
8.683,-0.54,-0.02,-0.24,0.59
8.690,-0.22,0.09,-0.22,0.32
8.694,-0.17,0.14,-0.28,0.36
8.698,-0.08,0.02,-0.36,0.37
8.705,0.08,0.02,-0.37,0.38
8.709,0.30,0.17,-0.32,0.47
8.714,0.46,0.23,-0.38,0.64
8.721,0.23,0.14,-0.52,0.58
8.724,-0.10,0.05,-0.56,0.57
8.729,-0.11,0.01,-0.49,0.50
8.733,0.03,-0.09,-0.38,0.39
8.743,-0.09,-0.24,-0.35,0.43
8.744,-0.38,-0.30,-0.27,0.55
8.749,-0.41,-0.22,-0.12,0.48
8.754,-0.66,-0.31,-0.12,0.74
8.760,-1.25,-0.51,-0.16,1.36
8.764,-1.29,-0.34,-0.22,1.36
8.773,-1.15,-0.15,-0.27,1.19
8.774,-0.88,-0.09,-0.18,0.91
8.780,-0.43,-0.10,-0.17,0.48
8.784,0.04,-0.05,-0.21,0.22
8.812,0.33,-0.07,-0.20,0.39
8.813,0.29,-0.09,-0.23,0.38
8.814,0.25,-0.06,-0.31,0.40
8.814,0.42,-0.07,-0.37,0.56
8.815,0.04,-0.04,-0.42,0.43
8.816,-0.63,-0.05,-0.39,0.74
8.820,-1.01,0.00,-0.35,1.07
8.825,-1.40,0.15,-0.26,1.43
8.829,-0.89,0.09,-0.10,0.90
8.837,-0.82,0.02,-0.15,0.84
8.841,-0.62,-0.05,-0.32,0.70
8.846,-0.31,-0.09,-0.50,0.60
8.849,-0.21,-0.15,-0.32,0.41
8.856,-0.07,-0.10,-0.26,0.28
8.860,0.43,-0.29,-0.35,0.62
8.865,0.34,-0.29,-0.35,0.57
8.869,-0.55,-0.07,-0.25,0.61
8.875,-1.18,0.09,-0.03,1.18
8.879,-1.31,0.13,0.03,1.32
8.883,-1.03,0.05,-0.15,1.05
8.889,-0.58,-0.22,-0.38,0.73
8.894,-0.31,-0.23,-0.25,0.46
8.899,-0.29,-0.06,-0.16,0.34
8.904,-0.27,0.11,-0.13,0.32
8.909,-0.24,0.19,-0.22,0.38
8.914,-0.28,0.03,-0.35,0.46
8.923,-0.25,0.03,-0.47,0.53
8.926,-0.23,-0.11,-0.54,0.60
8.931,0.57,-0.24,-0.55,0.83
8.937,1.04,-0.10,-0.75,1.29
8.941,0.49,-0.12,-0.90,1.03
8.946,-0.58,-0.22,-0.77,0.99
8.954,-1.78,0.32,-0.26,1.83
8.957,-1.04,-0.07,0.44,1.14
8.961,-0.11,-0.15,0.49,0.52
8.965,-0.28,-0.05,-0.08,0.30
8.972,-0.38,-0.19,-0.61,0.75
8.976,-0.58,-0.15,-0.45,0.75
8.981,-0.46,-0.16,0.08,0.49
8.985,-0.02,-0.20,0.41,0.46
8.991,-0.08,0.18,0.01,0.20
8.996,-0.16,0.29,-0.06,0.33
9.002,-0.30,0.18,-0.53,0.64
9.006,-0.25,0.10,-0.60,0.65
9.012,0.24,0.31,-0.56,0.69
9.018,0.30,0.53,-0.57,0.84
9.019,0.14,0.48,-0.73,0.88
9.022,-0.21,0.07,-0.51,0.56
9.027,-0.76,-0.21,-0.32,0.85
9.031,-0.75,-0.31,-0.32,0.88
9.037,-0.42,-0.29,-0.40,0.65
9.041,-0.37,-0.34,-0.28,0.57
9.046,-0.05,-0.68,0.14,0.70
9.052,-0.14,-0.60,0.00,0.62
9.056,-0.24,-0.16,0.10,0.30
9.061,-0.36,-0.02,-0.12,0.38
9.067,-0.41,-0.23,-0.31,0.56
9.072,-0.37,-0.34,-0.49,0.70
9.076,-0.31,-0.14,-0.32,0.47
9.081,-0.27,0.14,-0.17,0.35
9.087,-0.25,0.13,-0.17,0.33
9.093,-0.24,0.12,-0.48,0.54
9.096,-0.21,0.22,-0.59,0.66
9.103,-0.10,0.30,-0.44,0.54
9.107,-0.02,0.36,-0.26,0.44
9.112,-0.08,0.33,-0.19,0.39
9.117,-0.20,0.00,-0.43,0.47
9.122,-0.26,-0.48,-0.45,0.71
9.128,-0.28,-0.70,-0.20,0.79
9.131,-0.31,-0.29,-0.07,0.43
9.138,-0.36,0.11,-0.13,0.40
9.143,-0.32,-0.04,0.06,0.33
9.148,-0.20,-0.28,0.10,0.37
9.152,-0.39,-0.12,-0.40,0.57
9.157,-0.60,0.14,-0.93,1.12
9.163,-0.46,0.13,-0.76,0.90
9.171,-0.23,0.10,-0.07,0.26
9.172,-0.17,0.29,0.23,0.41
9.178,-0.24,0.68,-0.10,0.73
9.190,-0.24,0.95,-0.41,1.06
9.191,-0.10,0.60,-0.27,0.66
9.194,-0.02,0.15,-0.31,0.35
9.200,-0.21,-0.13,-0.68,0.73
9.202,-0.37,-0.14,-0.80,0.89
9.209,-0.33,0.05,-0.63,0.72
9.213,-0.24,-0.21,-0.40,0.50
9.219,-0.13,-0.34,-0.31,0.48
9.223,-0.29,-0.28,-0.31,0.52
9.229,-0.20,-0.04,-0.30,0.36
9.232,-0.08,-0.38,-0.16,0.41
9.238,-0.19,-0.26,0.32,0.45
9.243,-0.12,0.11,0.41,0.44
9.248,-0.24,-0.02,-0.05,0.25
9.252,-0.23,-0.08,-0.42,0.48
9.260,-0.34,-0.12,-0.33,0.49
9.262,-0.36,-0.72,-0.11,0.82
9.268,-0.46,-0.67,-0.60,1.01
9.273,-0.72,-0.21,-0.75,1.06
9.277,-0.39,-0.46,-0.68,0.91
9.283,-0.14,-0.56,-0.19,0.60
9.288,-0.11,-0.42,-0.05,0.44
9.292,-0.05,-0.26,-0.24,0.36
9.299,-0.14,0.02,-0.44,0.46
9.304,-0.04,-0.01,-0.33,0.33
9.310,-0.06,0.01,-0.18,0.19
9.315,-0.11,0.05,-0.34,0.36
9.320,-0.22,-0.02,-0.59,0.63
9.323,-0.24,-0.07,-0.48,0.54
9.331,-0.27,-0.05,-0.34,0.44
9.334,-0.21,-0.08,-0.46,0.51
9.339,-0.34,-0.09,-0.87,0.94
9.345,-0.30,-0.08,-0.90,0.95
9.349,-0.32,-0.05,-0.63,0.71
9.355,-0.26,0.05,-0.08,0.27
9.360,-0.20,0.13,-0.15,0.29
9.365,-0.15,0.04,-0.13,0.20
9.371,-0.21,-0.28,-0.30,0.46
9.376,-0.16,-0.15,-0.42,0.48
9.382,0.03,-0.05,-0.59,0.59
9.386,1.50,-0.60,-0.30,1.65
9.390,3.14,-1.16,-0.13,3.35
9.396,2.64,-1.10,-0.21,2.87
9.400,1.90,-0.85,-0.43,2.12
9.406,0.29,-0.17,-0.09,0.35
9.412,-3.02,1.06,0.57,3.25
9.417,-4.58,0.98,0.34,4.69
9.421,-5.12,1.25,0.09,5.27
9.426,0.73,-0.38,-0.57,1.00
9.439,-0.19,-0.40,-0.46,0.64
9.440,-0.14,0.25,0.33,0.43
9.441,-0.06,0.21,0.23,0.32
9.448,-0.04,-0.06,-0.45,0.45
9.451,-0.21,-0.22,-0.30,0.43
9.458,-0.08,-0.31,-0.46,0.56
9.463,-0.17,-0.16,-0.17,0.29
9.468,-0.12,0.14,-0.18,0.26
9.471,-0.14,0.03,-0.51,0.53
9.478,-0.21,-0.06,-0.71,0.74
9.483,-0.17,-0.26,-0.38,0.49
9.484,-0.22,-0.22,0.04,0.32
9.487,-0.31,-0.12,0.21,0.40
9.493,-0.37,-0.11,-0.27,0.47
9.500,-0.42,-0.07,-0.71,0.83
9.501,-0.26,-0.04,-0.61,0.67
9.508,-0.08,-0.14,-0.11,0.20
9.512,0.09,0.19,0.14,0.25
9.520,0.08,-0.17,0.01,0.19
9.522,-0.23,0.13,-0.47,0.54
9.528,-0.25,-0.05,-1.05,1.08
9.532,-1.54,-0.22,0.04,1.56
9.539,-0.75,-0.36,-0.42,0.93
9.543,2.05,-0.29,-1.10,2.34
9.548,0.46,-0.06,0.43,0.63
9.553,-0.39,-0.05,-0.36,0.53
9.559,-0.31,-0.03,-0.07,0.32
9.563,-0.42,-0.04,-0.10,0.44
9.568,-0.25,-0.08,-0.69,0.74
9.574,0.03,-0.12,-0.55,0.57
9.579,0.22,-0.10,-0.03,0.24
9.584,0.27,0.01,0.32,0.42
9.589,0.14,0.06,-0.05,0.16
9.594,-0.12,-0.02,-0.65,0.66
9.598,-0.23,-0.10,-0.88,0.91
9.605,-0.21,-0.08,-0.62,0.66
9.609,-0.12,-0.03,-0.14,0.19
9.616,-0.03,-0.05,0.09,0.11
9.620,-0.02,-0.18,-0.18,0.26
9.624,-0.02,-0.27,-0.51,0.57
9.628,-0.01,-0.24,-0.47,0.53
9.638,0.02,-0.18,-0.24,0.30
9.639,-0.03,-0.10,-0.05,0.11
9.645,-0.21,0.09,-0.12,0.26
9.650,-0.26,0.16,-0.41,0.51
9.654,-0.24,0.08,-0.47,0.53
9.661,-0.24,0.11,-0.26,0.38
9.664,-0.04,0.03,-0.22,0.23
9.670,0.18,-0.32,-0.34,0.50
9.674,0.10,-0.39,-0.32,0.52
9.679,-0.01,-0.20,-0.29,0.35
9.684,-0.07,-0.14,-0.33,0.36
9.691,-0.25,0.07,-0.20,0.33
9.695,-0.25,0.14,-0.24,0.37
9.700,-0.15,-0.09,-0.37,0.41
9.705,-0.10,-0.17,-0.27,0.34
9.710,-0.05,-0.11,-0.10,0.16
9.715,-0.06,-0.07,-0.21,0.23
9.720,-0.12,-0.07,-0.44,0.46
9.725,-0.11,-0.06,-0.56,0.57
9.732,-0.07,-0.10,-0.40,0.42
9.735,0.02,-0.17,-0.12,0.21
9.740,-0.05,-0.08,-0.02,0.10
9.744,-0.18,0.03,-0.25,0.31
9.758,-0.21,-0.02,-0.56,0.60
9.760,-0.22,-0.03,-0.57,0.61
9.760,-0.12,-0.11,-0.30,0.34
9.766,0.01,-0.19,-0.10,0.22
9.770,0.06,-0.12,-0.02,0.14
9.776,0.03,-0.08,-0.06,0.10
9.780,-0.08,-0.12,-0.41,0.44
9.786,-0.22,-0.05,-0.44,0.49
9.791,-0.23,-0.02,-0.40,0.46
9.795,-0.12,-0.08,-0.28,0.32
9.801,-0.07,-0.12,-0.25,0.28
9.807,-0.06,-0.05,-0.26,0.27
9.812,-0.07,-0.06,-0.39,0.40
9.816,-0.09,-0.05,-0.40,0.42
9.821,-0.12,-0.11,-0.32,0.36
9.827,-0.07,-0.19,-0.30,0.36
9.832,-0.03,-0.06,-0.29,0.30
9.836,-0.09,-0.02,-0.33,0.34
9.842,-0.09,-0.02,-0.34,0.35
9.847,-0.15,-0.08,-0.31,0.35
9.851,-0.12,-0.13,-0.28,0.34
9.856,-0.11,-0.17,0.02,0.20
9.862,-0.05,-0.08,0.27,0.29
9.866,-0.03,-0.13,0.65,0.66
9.872,0.01,-0.18,-0.30,0.35
9.878,-0.10,-0.11,-1.52,1.53
9.882,-0.26,-0.10,-0.62,0.68
9.887,-0.12,-0.09,-0.61,0.63
9.892,-0.05,-0.00,0.48,0.48
9.897,0.06,-0.02,0.05,0.08
9.902,-0.06,-0.03,-0.36,0.37
9.907,-0.11,-0.00,-1.08,1.09
9.918,-0.19,0.00,-0.91,0.93
9.920,-0.12,-0.01,-0.44,0.45
9.922,-0.14,-0.13,0.15,0.24
9.928,-0.10,-0.19,-0.11,0.24
9.932,-0.08,-0.17,-0.46,0.50
9.937,-0.16,-0.10,-0.35,0.40
9.943,-0.12,0.01,-0.26,0.28
9.943,-0.15,0.03,-0.04,0.16
9.948,-0.10,-0.17,-0.05,0.20
9.952,-0.31,-0.25,-0.12,0.42
9.956,-0.83,-0.20,-0.15,0.86
9.961,-0.70,-0.02,-0.38,0.80
9.966,-0.04,0.08,-0.56,0.56
9.971,0.36,0.00,-0.61,0.71
9.977,0.39,-0.08,-0.55,0.68
9.982,0.23,-0.03,-0.41,0.47
9.987,0.17,-0.01,-0.30,0.35
9.996,0.06,-0.04,-0.29,0.30
9.998,0.02,-0.07,-0.33,0.34
10.002,-0.07,-0.09,-0.29,0.31
10.007,-0.11,-0.10,-0.17,0.23
10.018,-0.11,-0.09,-0.04,0.15
10.019,-0.08,-0.07,-0.03,0.11
10.023,-0.07,-0.05,-0.03,0.09
10.028,-0.08,-0.20,-0.07,0.23
10.033,-0.04,-0.26,-0.08,0.28
10.039,-0.15,-0.15,-0.19,0.29
10.044,-0.24,0.19,-0.44,0.53
10.048,-0.10,0.01,-0.69,0.70
10.054,-0.05,-0.20,-0.66,0.69
10.060,-0.05,-0.00,-0.42,0.42
10.064,-0.04,-0.11,-0.41,0.43
10.067,-0.13,-0.07,-0.36,0.39
10.074,-0.18,0.12,-0.34,0.41
10.079,-0.07,0.01,-0.40,0.41
10.083,0.04,-0.26,-0.44,0.51
10.089,0.05,-0.24,-0.28,0.37
10.094,0.03,-0.12,-0.02,0.12
10.099,0.30,-0.31,0.03,0.44
10.104,1.07,-0.63,-0.21,1.26
10.110,1.58,-0.76,-0.44,1.81
10.114,1.26,-0.63,-0.36,1.46
10.120,0.53,-0.14,-0.08,0.55
10.124,-0.03,0.16,0.18,0.24
10.130,-0.55,0.18,0.23,0.62
10.135,-1.24,0.37,-0.08,1.30
10.140,-1.44,0.26,-0.55,1.56
10.145,-1.18,0.07,-0.55,1.30
10.149,-0.96,0.19,-0.26,1.01
10.154,-0.56,0.19,-0.15,0.62
10.168,-0.16,0.01,-0.31,0.35
10.170,-0.30,-0.06,-0.48,0.57
10.171,-0.35,-0.11,-0.51,0.62
10.176,-0.19,-0.14,-0.45,0.51
10.181,-0.10,-0.11,-0.54,0.56
10.185,-0.04,-0.01,-0.70,0.70
10.191,-0.02,0.02,-0.61,0.61
10.196,0.19,-0.09,-0.20,0.29
10.201,0.37,-0.36,0.16,0.54
10.206,0.40,-0.54,0.15,0.69
10.211,0.21,-0.39,0.01,0.44
10.216,-0.05,-0.02,-0.17,0.18
10.221,-0.24,0.29,-0.62,0.73
10.226,-0.07,-0.15,-0.69,0.71
10.231,-0.18,-0.17,-0.16,0.30
10.236,-0.53,0.29,0.24,0.65
10.240,-0.36,0.11,-0.01,0.38
10.246,-0.25,-0.21,-0.16,0.36
10.251,-0.77,-0.59,-0.30,1.02
10.255,-0.53,-0.81,-0.20,0.99
10.261,-0.29,-0.55,-0.53,0.81
10.266,-0.05,-0.16,-0.80,0.82
10.270,-0.23,-0.20,-0.54,0.62
10.282,-0.47,-0.33,-0.47,0.74
10.283,-0.49,-0.64,-0.19,0.83
10.286,-0.17,-0.50,0.03,0.53
10.292,0.13,-0.34,-0.16,0.40
10.297,0.01,-0.22,-0.48,0.53
10.301,0.33,0.14,-0.43,0.56
10.307,0.14,0.36,-0.18,0.43
10.313,0.07,0.61,-0.19,0.65
10.316,0.12,0.50,-0.53,0.74
10.319,-0.32,0.45,-0.47,0.72
10.327,-0.56,0.64,-0.17,0.87
10.331,-0.65,1.56,0.07,1.69
10.338,0.12,-0.07,0.18,0.23
10.342,0.42,-0.31,0.01,0.53
10.347,0.53,-0.26,0.02,0.59
10.352,0.54,-0.26,-0.21,0.63
10.357,0.27,-0.20,-0.45,0.56
10.363,-0.21,-0.02,-0.89,0.92
10.367,-0.23,-0.10,-1.10,1.13
10.371,-0.73,0.07,-0.58,0.93
10.378,-0.61,-0.32,-0.16,0.70
10.382,-0.80,-0.67,-0.33,1.10
10.388,-0.97,-1.09,-0.80,1.66
10.393,-0.99,-0.98,-0.72,1.56
10.398,-1.02,-0.03,-0.23,1.05
10.402,-0.31,-0.23,-0.15,0.42
10.411,0.42,-1.63,-0.49,1.75
10.414,0.36,-2.97,-0.51,3.04
10.415,-0.18,-9.91,-3.03,10.36
10.418,2.59,-15.35,21.26,26.35
10.422,0.27,3.40,3.76,5.08
10.433,-3.08,10.92,-3.59,11.90
10.435,-2.92,8.60,-2.60,9.44
10.438,-0.55,3.69,-1.38,3.98
10.443,0.21,0.47,-0.58,0.78
10.448,7.19,9.77,-0.56,12.14
10.453,2.11,2.48,0.37,3.28
10.458,-0.04,-0.10,-0.02,0.11
10.463,-0.27,-0.10,-0.43,0.52
10.468,-0.13,-0.27,-0.28,0.41
10.474,0.31,-0.37,-0.16,0.51
10.479,0.55,-0.27,-0.27,0.67
10.483,0.26,-0.62,-0.37,0.76
10.489,0.07,0.04,-0.51,0.52
10.494,-0.18,0.75,-0.35,0.85
10.499,-0.52,0.51,0.01,0.73
10.504,-0.46,0.76,0.08,0.89
10.510,-0.35,0.50,-0.25,0.66
10.514,-0.35,-0.54,-0.55,0.85
10.519,-0.22,-0.49,-0.53,0.76
10.524,-0.21,0.31,-0.52,0.64
10.529,-0.32,0.17,-0.63,0.73
10.534,-0.27,-0.61,-0.65,0.93
10.539,-0.18,-1.08,-0.20,1.11
10.545,-0.25,-0.77,0.34,0.88
10.549,-0.72,-0.68,0.17,1.00
10.553,-0.69,-1.15,-0.55,1.45
10.569,-0.43,-1.08,-1.04,1.56
10.570,-0.34,-0.92,-0.37,1.05
10.571,-0.14,-0.55,0.46,0.73
10.575,-0.00,0.06,0.15,0.16
10.580,0.33,-0.00,-0.63,0.71
10.584,0.42,-0.29,-0.97,1.10
10.591,0.20,-0.39,-0.51,0.67
10.594,0.24,-0.32,0.10,0.41
10.600,0.20,-0.17,0.01,0.27
10.604,0.04,-0.09,-0.58,0.59
10.609,-0.12,-0.01,-0.85,0.86
10.614,-0.12,0.08,-0.47,0.49
10.619,0.04,0.12,0.10,0.16
10.624,0.08,0.11,0.33,0.36
10.630,0.05,-0.00,0.12,0.13
10.635,0.05,-0.15,-0.08,0.17
10.640,-0.07,-0.42,-0.07,0.43
10.645,-0.31,-0.97,-0.53,1.14
10.650,-0.48,-1.12,-0.70,1.41
10.656,-0.75,-0.48,-0.04,0.89
10.660,-0.46,-0.19,-0.11,0.51
10.664,0.22,-0.24,-0.73,0.80
10.669,0.16,0.03,-0.88,0.90
10.674,0.17,0.09,-0.70,0.72
10.679,-0.01,-0.08,-0.19,0.21
10.684,-0.14,0.02,-0.17,0.22
10.691,-0.05,0.02,-0.49,0.50
10.695,-0.00,0.19,-0.58,0.61
10.700,0.02,0.21,-0.42,0.46
10.714,-0.01,0.02,-0.20,0.20
10.715,-0.13,0.11,-0.15,0.23
10.717,-0.11,0.05,-0.16,0.20
10.720,-0.11,-0.14,-0.26,0.31
10.726,-0.24,-0.22,-0.40,0.51
10.730,-0.32,-0.20,-0.46,0.59
10.736,-0.64,-0.20,-0.56,0.87
10.741,-0.55,-0.18,-0.50,0.76
10.746,-0.23,-0.14,-0.36,0.45
10.751,-0.21,-0.02,0.05,0.22
10.756,-1.00,0.36,0.23,1.09
10.761,-2.92,0.73,0.01,3.01
10.766,-4.12,1.10,-0.87,4.35
10.771,-3.50,0.72,-0.50,3.61
10.776,-2.09,0.24,-0.57,2.18
10.780,-0.50,0.20,-0.61,0.82
10.788,1.05,-0.08,-0.39,1.12
10.792,0.92,-0.31,0.01,0.97
10.796,2.27,0.31,-0.16,2.30
10.801,1.74,0.05,-0.79,1.91
10.813,1.14,-0.10,-1.35,1.77
10.814,1.38,0.03,-0.77,1.58
10.817,5.08,-0.37,-1.00,5.19
10.823,1.96,-0.72,2.04,2.92
10.828,0.35,-0.41,-0.51,0.74
10.834,-0.15,0.28,0.79,0.85
10.838,-0.55,-0.50,-1.19,1.41
10.843,0.26,-0.64,-0.47,0.84
10.850,0.12,-0.33,-0.10,0.37
10.854,-0.82,0.41,0.34,0.98
10.858,-0.25,-0.67,0.59,0.92
10.863,-0.11,-0.19,-0.10,0.24
10.868,-0.01,0.35,-0.56,0.66
10.872,-0.41,-0.06,-0.59,0.73
10.878,-0.51,-0.64,-0.36,0.89
10.878,0.32,-0.36,-0.12,0.50
10.883,-0.01,-0.23,0.08,0.25
10.888,-0.34,-1.02,-0.18,1.09
10.892,-0.02,-0.57,-0.69,0.90
10.898,-0.14,-0.62,-0.47,0.79
10.905,-0.11,-0.51,-0.19,0.56
10.908,-0.31,-0.88,0.14,0.95
10.913,-0.15,-0.83,0.05,0.85
10.919,-0.19,-0.34,-0.27,0.47
10.924,-0.22,-0.37,-0.74,0.86
10.928,-0.10,-0.49,-0.33,0.60
10.933,-0.17,-0.42,-0.09,0.46
10.939,-0.14,-0.45,-0.14,0.50
10.943,-0.23,-0.54,-0.50,0.77
10.948,-0.24,-0.49,-0.52,0.76
10.963,-0.23,-0.20,-0.53,0.61
10.964,-0.18,0.07,-0.63,0.66
10.965,-0.06,0.02,-0.35,0.36
10.969,-0.01,-0.09,-0.18,0.20
10.974,0.02,-0.07,-0.15,0.17
10.979,-0.01,-0.06,-0.14,0.15
10.984,0.08,-0.07,-0.30,0.31
10.989,0.02,-0.15,-0.40,0.43
10.993,-0.09,-0.22,-0.47,0.53
10.998,-0.10,-0.28,-0.32,0.43
11.004,-0.18,-0.29,-0.08,0.36
11.009,-0.24,-0.28,-0.01,0.37
11.014,-0.27,-0.18,-0.09,0.34
11.021,-0.35,-0.02,-0.35,0.49
11.025,-0.33,0.10,-0.52,0.63
11.029,-0.18,0.15,-0.34,0.41
11.034,-0.10,0.07,-0.10,0.16
11.040,-0.06,-0.21,-0.10,0.24
11.044,-0.13,-0.39,-0.37,0.55
11.050,-0.15,-0.35,-0.33,0.51
11.058,0.03,-0.38,-0.11,0.40
11.060,-0.05,-0.21,-0.29,0.36
11.065,-0.26,0.14,-0.56,0.63
11.092,-0.29,-0.02,-0.69,0.75
11.094,-0.14,-0.25,-0.47,0.55
11.095,-0.03,-0.22,-0.05,0.23
11.096,-0.08,-0.31,0.30,0.44
11.098,-0.04,-0.28,0.15,0.32
11.098,-0.10,-0.15,-0.30,0.35
11.100,-0.17,-0.10,-0.63,0.66
11.107,-0.25,-0.09,-0.66,0.71
11.111,-0.20,-0.09,-0.45,0.50
11.115,-0.07,-0.11,-0.13,0.18
11.121,-0.04,-0.14,-0.08,0.17
11.125,0.02,-0.17,-0.46,0.49
11.131,-0.04,-0.20,-0.36,0.42
11.137,-0.23,-0.07,-0.47,0.52
11.141,-0.24,0.02,-0.43,0.50
11.145,-0.25,0.00,-0.13,0.28
11.151,-0.19,-0.12,-0.10,0.24
11.157,-0.19,-0.19,-0.17,0.32
11.161,-0.20,-0.21,-0.32,0.43
11.166,-0.24,-0.25,-0.44,0.56
11.171,-0.10,-0.29,-0.28,0.42
11.176,-0.03,-0.34,-0.14,0.37
11.181,-0.07,-0.41,-0.18,0.46
11.186,-0.06,-0.36,-0.17,0.40
11.191,-0.21,-0.16,-0.44,0.51
11.197,-0.22,0.17,-0.46,0.54
11.201,-0.22,0.02,-0.42,0.47
11.208,-0.31,-0.63,-0.58,0.91
11.213,-0.13,0.07,-0.53,0.55
11.217,-0.00,0.26,0.39,0.46
11.224,0.19,-0.54,0.95,1.11
11.227,-0.19,-0.32,0.15,0.40
11.231,-0.47,0.18,-3.39,3.43
11.266,-0.12,0.62,-0.62,0.88
11.268,-0.02,-0.08,1.50,1.51
11.274,-0.11,0.02,-0.53,0.55
11.275,-0.05,0.41,0.88,0.97
11.277,-0.35,-0.83,-1.66,1.89
11.278,-0.38,-1.03,-0.88,1.40
11.279,-0.01,-0.18,0.40,0.44
11.280,0.08,0.02,0.30,0.31
11.282,-0.10,-0.09,0.00,0.14
11.283,-0.20,-0.07,-0.73,0.76
11.292,-0.30,0.04,-0.87,0.92
11.293,-0.34,-0.09,-0.09,0.36
11.297,-0.22,-0.11,0.14,0.29
11.303,-0.17,-0.14,-0.20,0.29
11.307,-0.10,-0.37,-0.58,0.69
11.313,0.02,-0.39,-0.50,0.63
11.323,0.01,-0.26,-0.25,0.37
11.324,-0.08,-0.04,0.00,0.09
11.328,-0.17,-0.06,-0.40,0.44
11.333,-0.26,-0.03,-0.69,0.74
11.343,-0.22,-0.09,-0.64,0.68
11.345,-0.13,-0.14,-0.33,0.38
11.351,0.02,-0.14,0.25,0.29
11.354,0.09,-0.22,0.29,0.37
11.356,0.00,-0.34,0.07,0.34
11.392,-0.10,-0.29,-0.54,0.62
11.394,-0.22,-0.10,-0.94,0.97
11.395,-0.24,0.06,-0.62,0.66
11.397,-0.13,-0.03,-0.11,0.17
11.398,-0.13,-0.18,0.14,0.26
11.399,-0.20,-0.18,-0.07,0.28
11.400,-0.27,-0.26,-0.36,0.52
11.401,-0.30,-0.26,-0.42,0.58
11.401,-0.24,-0.03,-0.50,0.56
11.409,-0.15,0.08,-0.52,0.55
11.410,-0.11,-0.08,-0.39,0.42
11.413,-0.11,-0.21,-0.45,0.51
11.423,-0.15,-0.11,-0.50,0.54
11.425,-0.13,-0.06,-0.08,0.16
11.429,-0.10,-0.03,0.24,0.26
11.439,-0.10,-0.01,-0.12,0.16
11.440,-0.15,-0.03,-0.42,0.44
11.443,-0.12,-0.28,-0.46,0.55
11.449,-0.14,-0.56,-0.25,0.63
11.465,-0.13,-0.33,-0.10,0.37
11.466,-0.12,-0.06,-0.34,0.37
11.470,-0.17,-0.10,-0.53,0.57
11.471,-0.17,-0.19,-0.43,0.50
11.474,-0.11,-0.19,-0.29,0.36
11.479,-0.08,-0.27,-0.03,0.29
11.484,-0.09,-0.49,0.37,0.63
11.489,-0.16,-0.59,0.06,0.62
11.495,-0.28,-0.29,-0.85,0.94
11.502,-0.30,0.04,-1.28,1.31
11.505,-0.20,0.14,-0.89,0.92
11.509,-0.03,0.46,0.10,0.47
11.515,0.16,0.51,0.57,0.78
11.520,-0.03,0.28,0.14,0.32
11.526,-0.09,0.13,-0.56,0.58
11.537,-0.05,-0.03,-1.08,1.09
11.540,-0.18,-0.38,-0.79,0.90
11.541,-0.03,-0.41,-0.07,0.42
11.545,-0.12,0.72,0.49,0.88
11.551,-0.14,0.88,0.46,1.00
11.556,-0.38,0.28,-0.55,0.72
11.564,-0.36,0.12,-1.05,1.11
11.565,-0.29,0.32,-0.47,0.64
11.571,-0.16,-0.26,0.07,0.32
11.575,-0.09,-0.37,0.05,0.38
11.580,-0.19,0.10,-0.53,0.58
11.602,-0.05,-0.07,-1.11,1.12
11.604,-0.13,0.00,-0.66,0.67
11.605,-0.19,-0.25,0.07,0.32
11.606,0.01,-0.43,0.19,0.47
11.608,-0.02,-0.21,-0.29,0.36
11.611,-0.18,-0.67,-0.28,0.75
11.617,-0.11,-0.31,0.14,0.36
11.625,-0.12,-0.70,0.06,0.72
11.626,-0.02,-0.46,-0.77,0.90
11.631,-0.24,-0.29,-0.41,0.56
11.637,-0.13,-0.42,-0.58,0.73
11.641,-0.03,-0.40,0.12,0.42
11.646,-0.04,-0.47,0.12,0.49
11.655,-0.19,-0.78,-0.09,0.81
11.657,-0.39,-0.78,-0.45,0.98
11.661,-0.27,-0.22,0.09,0.36
11.669,-0.27,0.08,-0.52,0.60
11.671,-0.15,-0.12,-0.46,0.50
11.676,-0.12,-0.24,-0.94,0.98
11.695,0.05,-0.09,-0.38,0.40
11.697,-0.02,-0.38,-0.06,0.38
11.698,-0.14,-0.08,0.02,0.16
11.700,-0.29,-0.03,-0.42,0.52
11.703,-0.26,-0.25,-0.81,0.89
11.707,-0.21,-0.23,-0.45,0.55
11.711,-0.00,-0.16,0.11,0.20
11.721,-0.10,0.01,0.24,0.26
11.723,-0.05,-0.12,-0.00,0.12
11.727,-0.23,-0.09,-0.71,0.75
11.734,-0.31,-0.07,-0.83,0.89
11.737,-0.07,-0.05,-0.10,0.13
11.743,0.03,-0.06,0.39,0.39
11.747,-0.00,-0.13,-0.05,0.14
11.753,-0.29,-0.01,-0.97,1.01
11.757,-0.33,-0.01,-0.25,0.41
11.762,-0.25,-0.26,-0.37,0.52
11.767,-0.31,-0.23,-0.41,0.57
11.772,-0.31,-0.26,-0.22,0.46
11.777,-0.10,-0.25,-0.30,0.41
11.785,0.10,-0.45,-0.16,0.49
11.787,-0.11,-0.50,-0.14,0.53
11.792,-0.22,-0.55,-0.61,0.85
11.797,-0.21,-0.56,-0.66,0.89
11.798,-0.42,0.61,0.01,0.74
11.807,0.18,-0.04,0.08,0.20
11.808,0.06,-0.68,0.55,0.87
11.812,-0.15,-0.64,-0.75,0.99
11.820,0.02,-0.31,-1.01,1.06
11.823,-0.07,-0.30,-0.51,0.59
11.828,-0.10,-0.22,0.37,0.44
11.833,-0.05,-0.04,-0.14,0.16
11.838,0.13,0.00,-0.08,0.15
11.843,-0.10,-0.03,-0.39,0.41
11.849,-0.21,0.04,-0.35,0.41
11.853,-0.26,0.49,-0.42,0.69
11.858,-0.14,0.45,-0.58,0.75
11.863,-0.12,0.10,-0.23,0.27
11.869,-0.12,-0.08,-0.12,0.18
11.874,0.04,-0.06,-0.26,0.27
11.879,-0.07,-0.27,-0.25,0.37
11.884,-0.24,-0.43,-0.26,0.56
11.889,-0.27,-0.10,-0.39,0.48
11.894,-0.25,-0.02,-0.44,0.50
11.899,-0.17,-0.25,-0.36,0.47
11.903,-0.04,-0.19,-0.24,0.31
11.910,-0.06,-0.03,-0.18,0.19
11.918,-0.14,-0.06,-0.25,0.29
11.921,-0.20,-0.15,-0.35,0.43
11.924,-0.18,-0.28,-0.40,0.53
11.936,-0.10,-0.28,-0.37,0.47
11.938,-0.05,-0.04,-0.33,0.33
11.940,-0.10,0.08,-0.26,0.29
11.945,-0.19,-0.09,-0.26,0.33
11.970,-0.24,-0.22,-0.39,0.51
11.972,-0.22,-0.17,-0.47,0.55
11.974,-0.17,-0.12,-0.31,0.37
11.976,-0.09,-0.11,-0.03,0.14
11.977,-0.03,-0.12,-0.04,0.13
11.978,-0.05,-0.19,-0.31,0.37
11.980,-0.13,-0.21,-0.53,0.58
11.987,-0.24,-0.18,-0.59,0.66
11.991,-0.29,-0.23,-0.40,0.54
11.994,-0.23,-0.28,-0.23,0.42
12.000,-0.18,-0.31,-0.32,0.48
12.005,-0.15,-0.33,-0.34,0.50
12.010,-0.14,-0.38,-0.27,0.48
12.015,-0.08,-0.44,-0.13,0.47
12.020,-0.06,-0.43,-0.19,0.47
12.025,-0.13,-0.37,-0.34,0.52
12.032,-0.09,-0.42,-0.41,0.59
12.037,-0.03,-0.70,-0.12,0.71
12.039,-0.05,-0.72,0.47,0.86
12.044,-0.22,-0.58,-0.09,0.63
12.058,-0.30,-0.61,-0.61,0.91
12.060,-0.25,-0.11,-0.78,0.83
12.062,-0.14,-0.15,-0.53,0.57
12.097,-0.02,-0.05,-0.43,0.43
12.100,-0.18,-0.19,0.06,0.27
12.101,0.11,0.15,-0.24,0.30
12.103,-0.21,-0.18,-0.08,0.29
12.104,0.01,0.09,-0.50,0.51
12.105,-0.24,0.28,0.07,0.37
12.107,-0.15,0.26,-0.27,0.40
12.108,-0.19,-0.09,0.10,0.23
12.109,-0.10,0.24,-0.67,0.72
12.111,-0.44,0.09,-0.56,0.71
12.118,-0.68,0.68,-0.85,1.28
12.121,-1.12,1.36,-0.05,1.76
12.127,-1.42,0.70,-0.14,1.59
12.132,-1.32,0.28,0.11,1.36
12.136,-0.90,0.14,-0.55,1.07
12.142,-0.10,-0.37,-0.25,0.46
12.151,-0.28,-0.05,0.17,0.33
12.153,-1.95,0.70,0.50,2.13
12.157,-0.79,0.27,-0.59,1.02
12.161,-0.56,-0.05,-0.89,1.05
12.185,-0.85,-0.17,-0.50,1.00
12.187,-0.59,-0.12,-0.08,0.61
12.189,-0.34,-0.02,0.26,0.42
12.193,-0.03,0.04,-0.27,0.27
12.194,0.71,-0.47,-0.77,1.15
12.195,-0.26,-0.29,-1.14,1.20
12.201,-0.69,0.05,-0.48,0.84
12.203,-1.73,0.82,0.40,1.96
12.207,-2.79,0.66,0.27,2.88
12.216,-1.82,-0.14,-0.54,1.91
12.218,-0.01,-0.48,-0.97,1.08
12.222,0.96,-0.85,-0.30,1.31
12.227,2.26,-1.09,0.05,2.51
12.234,3.23,-1.33,0.13,3.49
12.238,1.90,-0.77,-0.19,2.06
12.243,1.25,-0.82,-0.70,1.65
12.247,1.65,-0.97,-0.69,2.03
12.253,1.03,-0.57,-0.43,1.26
12.258,0.81,-0.42,-0.32,0.97
12.265,0.85,-0.42,-0.47,1.06
12.268,1.13,-0.60,-0.41,1.34
12.269,1.38,-0.54,-0.35,1.52
12.273,0.82,-0.29,-0.17,0.88
12.279,0.61,-0.28,-0.01,0.67
12.285,0.58,-0.37,-0.34,0.77
12.288,0.42,-0.34,-0.54,0.76
12.294,0.31,-0.46,-0.49,0.74
12.299,0.28,-0.44,-0.25,0.58
12.303,0.33,-0.29,-0.11,0.46
12.309,0.19,-0.26,-0.24,0.41
12.321,0.09,-0.33,-0.45,0.57
12.322,-0.02,-0.39,-0.36,0.53
12.324,0.02,-0.40,-0.12,0.42
12.354,0.08,-0.42,-0.16,0.46
12.355,0.11,-0.25,-0.32,0.42
12.356,0.02,-0.11,-0.44,0.46
12.357,-0.04,-0.18,-0.59,0.61
12.359,-0.10,-0.19,-0.40,0.45
12.360,0.00,-0.16,-0.22,0.27
12.361,0.02,-0.14,-0.13,0.19
12.362,0.02,-0.17,-0.17,0.24
12.368,0.01,-0.25,-0.37,0.45
12.373,-0.04,-0.31,-0.49,0.58
12.377,-0.03,-0.29,-0.43,0.52
12.383,0.05,-0.26,-0.25,0.37
12.389,0.07,-0.21,-0.13,0.25
12.393,0.00,-0.18,-0.19,0.26
12.399,-0.07,-0.18,-0.30,0.35
12.404,-0.06,-0.17,-0.40,0.43
12.409,0.02,-0.15,-0.34,0.38
12.415,0.07,-0.16,-0.24,0.30
12.419,0.09,-0.19,-0.25,0.33
12.424,0.10,-0.24,-0.24,0.35
12.435,0.06,-0.26,-0.27,0.38
12.436,-0.04,-0.27,-0.27,0.38
12.440,-0.12,-0.33,-0.22,0.41
12.444,-0.15,-0.38,-0.23,0.47
12.449,-0.14,-0.45,-0.36,0.59
12.454,-0.10,-0.55,-0.41,0.69
12.460,-0.08,-0.57,-0.19,0.61
12.466,-0.01,-0.57,-0.22,0.62
12.469,0.03,-0.64,-0.45,0.78
12.475,0.17,-0.78,-0.58,0.99
12.479,0.31,-0.99,-0.44,1.13
12.484,0.35,-1.04,0.03,1.10
12.490,0.36,-0.60,0.28,0.76
12.499,0.29,-0.28,0.21,0.46
12.501,0.20,-0.14,-0.40,0.47
12.506,-0.10,-0.27,-0.56,0.63
12.511,-0.41,-0.50,-0.65,0.91
12.516,-0.30,-0.05,-0.58,0.65
12.520,0.14,0.56,-0.11,0.59
12.527,0.25,0.04,0.34,0.43
12.532,0.03,0.06,-0.06,0.09
12.536,-0.15,0.25,-0.93,0.97
12.541,-0.18,0.08,-0.98,1.00
12.549,-0.13,-0.20,-0.37,0.44
12.551,-0.25,-0.31,0.24,0.46
12.556,-0.04,0.34,-0.17,0.38
12.562,-0.12,-0.04,-0.33,0.35
12.566,-0.11,-0.31,-0.53,0.63
12.571,-0.05,0.43,-0.47,0.64
12.577,-0.06,0.44,-0.37,0.58
12.584,-0.03,0.24,-0.12,0.27
12.587,-0.10,0.15,-0.29,0.34
12.591,-0.02,0.15,-0.56,0.58
12.616,-0.02,0.06,-0.33,0.34
12.618,-0.04,-0.23,0.07,0.24
12.619,-0.06,-0.08,-0.05,0.11
12.620,-0.07,-0.24,-0.23,0.34
12.622,-0.21,-0.44,-0.33,0.59
12.622,-0.08,-0.17,-0.40,0.44
12.629,-0.01,-0.08,-0.38,0.39
12.631,0.09,-0.19,-0.25,0.33
12.635,-0.00,-0.24,-0.23,0.33
12.643,-0.04,-0.22,-0.42,0.48
12.647,-0.14,-0.20,-0.32,0.40
12.650,-0.07,-0.20,-0.31,0.37
12.658,-0.00,-0.15,-0.33,0.36
12.661,0.06,-0.10,-0.48,0.49
12.666,0.00,-0.16,-0.39,0.43
12.673,0.00,-0.34,-0.41,0.53
12.677,-0.01,-0.18,-0.22,0.28
12.682,-0.07,-0.43,-0.28,0.52
12.686,0.07,-0.04,-0.49,0.50
12.690,0.08,-0.09,-0.28,0.30
12.704,0.03,-0.24,-0.25,0.34
12.705,-0.15,-0.41,-0.19,0.47
12.705,0.01,-0.26,-0.32,0.41
12.713,-0.01,-0.19,-0.22,0.29
12.717,0.03,-0.20,-0.36,0.41
12.722,0.07,-0.17,-0.29,0.34
12.728,0.09,-0.24,-0.28,0.38
12.732,0.07,-0.34,-0.32,0.47
12.733,0.09,-0.17,-0.18,0.27
12.738,-0.09,-0.24,-0.18,0.31
12.741,-0.09,-0.08,-0.48,0.49
12.746,-0.07,-0.16,-0.42,0.45
12.751,-0.04,-0.27,-0.42,0.50
12.756,-0.10,-0.36,-0.26,0.46
12.763,-0.15,-0.40,0.28,0.51
12.767,-0.04,-0.36,-0.76,0.84
12.774,0.01,-0.38,-0.43,0.57
12.778,0.01,-0.32,-0.16,0.36
12.783,-0.07,-0.32,-0.12,0.35
12.788,-0.16,-0.22,0.14,0.31
12.793,-0.17,-0.30,-0.29,0.45
12.798,-0.08,-0.52,-0.43,0.68
12.803,-0.04,-0.50,-0.38,0.63
12.808,0.01,-0.44,-0.17,0.47
12.813,-0.04,-0.34,0.04,0.35
12.818,-0.10,-0.53,-0.41,0.68
12.825,-0.09,-0.44,-0.65,0.79
12.830,-0.09,-0.29,-0.61,0.68
12.832,-0.01,-0.40,-0.24,0.47
12.838,0.09,0.28,-0.18,0.34
12.851,0.14,0.65,-0.44,0.80
12.852,0.04,0.34,-0.23,0.41
12.853,0.03,0.54,-0.22,0.58
12.859,0.20,0.72,-0.17,0.77
12.864,0.16,0.10,0.01,0.19
12.867,0.08,-0.22,-0.24,0.34
12.874,0.16,-0.19,-0.41,0.48
12.878,0.13,-0.20,-0.36,0.43
12.883,0.10,-0.13,-0.15,0.22
12.890,0.10,-0.20,-0.20,0.30
12.892,-0.02,-0.36,-0.64,0.73
12.899,-0.11,-0.43,-0.69,0.82
12.903,-0.15,-0.40,-0.31,0.53
12.910,-0.15,-0.31,-0.10,0.36
12.914,-0.18,-0.25,-0.35,0.47
12.919,-0.23,-0.25,-0.64,0.72
12.923,-0.18,-0.24,-0.52,0.60
12.929,-0.06,-0.22,-0.18,0.29
12.935,0.07,-0.17,0.04,0.19
12.941,0.23,-0.11,-0.08,0.27
12.944,0.43,-0.07,-0.37,0.57
12.949,0.49,-0.03,-0.49,0.69
12.955,0.53,-0.13,-0.38,0.67
12.962,0.53,-0.16,-0.06,0.55
12.964,0.35,-0.12,0.10,0.39
12.970,0.16,-0.11,-0.12,0.23
12.974,-0.12,-0.15,-0.49,0.53
12.987,-0.11,-0.10,-0.62,0.64
12.988,-0.10,-0.14,-0.41,0.44
12.995,-0.19,-0.31,-0.31,0.47
12.996,-0.25,-0.34,-0.27,0.51
13.003,-0.27,-0.30,-0.34,0.53
13.006,-0.19,-0.31,-0.37,0.52
13.010,-0.14,-0.25,-0.36,0.46
13.015,-0.11,-0.20,-0.30,0.38
13.019,-0.06,-0.25,-0.22,0.34
13.025,0.02,-0.22,-0.26,0.34
13.030,0.13,-0.19,-0.42,0.47
13.036,0.16,-0.16,-0.34,0.42
13.044,0.06,-0.18,-0.20,0.27
13.045,0.00,-0.17,-0.18,0.25
13.049,0.12,-0.14,-0.17,0.25
13.060,0.23,-0.05,-0.21,0.32
13.062,0.19,-0.04,-0.22,0.30
13.065,0.21,-0.04,-0.30,0.36
13.071,0.03,-0.13,-0.27,0.30
13.077,-0.02,-0.09,-0.30,0.31
13.080,-0.08,-0.05,-0.39,0.40
13.087,-0.15,-0.08,-0.49,0.52
13.090,-0.23,-0.15,-0.61,0.67
13.095,-0.43,-0.33,-0.52,0.75
13.101,-0.38,-0.43,-0.25,0.63
13.107,-0.36,-0.49,-0.23,0.65
13.111,-0.15,-0.48,-0.36,0.62
13.116,-0.15,-0.37,-0.39,0.55
13.120,-0.04,-0.14,-0.29,0.33
13.133,0.08,-0.07,-0.31,0.32
13.134,0.14,-0.15,-0.22,0.30
13.135,0.20,-0.17,-0.23,0.35
13.140,0.16,-0.21,-0.13,0.30
13.146,0.06,-0.09,-0.24,0.26
13.151,0.09,0.01,-0.33,0.35
13.155,0.15,-0.04,-0.26,0.30
13.161,0.18,-0.11,-0.39,0.44
13.166,0.21,-0.15,-0.40,0.47
13.171,0.17,-0.17,-0.20,0.31
13.176,0.17,-0.17,-0.24,0.34
13.181,0.08,-0.16,-0.35,0.39
13.186,0.18,-0.15,-0.46,0.52
13.192,0.14,-0.13,-0.40,0.45
13.193,0.11,-0.07,-0.27,0.30
13.198,0.01,-0.05,-0.18,0.19
13.201,-0.18,-0.16,-0.27,0.36
13.207,-0.15,-0.25,-0.21,0.36
13.211,-0.30,-0.36,-0.21,0.51
13.217,-0.38,-0.31,-0.30,0.58
13.221,-0.43,-0.33,-0.39,0.67
13.226,-0.42,-0.36,-0.44,0.70
13.232,-0.27,-0.33,-0.45,0.62
13.237,-0.24,-0.28,-0.36,0.52
13.245,-0.17,-0.25,-0.27,0.40
13.246,-0.10,-0.20,-0.20,0.30
13.254,0.04,-0.16,-0.19,0.25
13.267,0.16,-0.08,-0.13,0.22
13.268,0.33,-0.00,-0.20,0.39
13.269,0.61,0.13,-0.36,0.72
13.272,0.83,0.23,-0.45,0.97
13.278,0.59,0.09,-0.47,0.76
13.283,0.32,0.10,-0.37,0.50
13.287,0.28,-0.09,-0.02,0.29
13.293,-0.13,-0.14,-0.27,0.33
13.297,-0.44,0.01,-0.37,0.57
13.303,-0.61,0.01,-0.51,0.79
13.308,-0.42,-0.06,-0.39,0.58
13.315,-0.27,-0.41,-0.16,0.52
13.316,-0.29,-0.63,-0.06,0.69
13.322,-0.26,-0.61,-0.20,0.69
13.328,-0.21,-0.50,-0.43,0.69
13.333,-0.13,-0.39,-0.39,0.56
13.337,-0.01,-0.33,-0.28,0.43
13.343,0.06,-0.23,-0.29,0.37
13.348,0.04,-0.13,-0.43,0.45
13.353,-0.04,-0.08,-0.57,0.58
13.357,-0.08,-0.12,-0.48,0.50
13.363,-0.01,-0.17,-0.18,0.25
13.367,0.04,-0.21,0.00,0.22
13.373,0.05,-0.29,-0.06,0.30
13.381,0.01,-0.34,-0.29,0.45
13.382,-0.05,-0.35,-0.48,0.60
13.387,-0.01,-0.32,-0.46,0.56
13.394,0.04,-0.27,-0.30,0.40
13.397,0.04,-0.24,-0.17,0.30
13.403,0.02,-0.25,-0.19,0.31
13.418,-0.03,-0.21,-0.28,0.35
13.419,-0.05,-0.18,-0.43,0.47
13.420,-0.01,-0.16,-0.43,0.46
13.425,0.12,-0.16,-0.26,0.33
13.429,0.22,-0.18,-0.27,0.40
13.433,0.19,-0.19,-0.32,0.42
13.439,0.06,-0.14,-0.39,0.42
13.444,-0.02,-0.16,-0.32,0.36
13.449,-0.06,-0.21,-0.25,0.33
13.454,-0.15,-0.24,-0.18,0.33
13.459,-0.17,-0.24,-0.26,0.40
13.463,-0.20,-0.24,-0.33,0.46
13.468,-0.16,-0.28,-0.37,0.49
13.474,-0.10,-0.28,-0.35,0.46
13.478,-0.11,-0.25,-0.38,0.47
13.484,-0.11,-0.19,-0.27,0.35
13.491,-0.16,-0.13,-0.17,0.27
13.496,-0.18,-0.01,-0.20,0.26
13.500,-0.21,0.06,-0.26,0.34
13.505,-0.40,0.25,-0.29,0.55
13.511,-0.64,0.36,-0.34,0.81
13.514,-0.81,0.43,-0.39,0.99
13.520,-1.16,0.55,-0.22,1.30
13.526,-1.85,0.62,-0.09,1.95
13.530,-2.47,1.02,0.00,2.67
13.535,-5.79,2.79,0.26,6.43
13.551,2.08,-2.67,1.96,3.91
13.553,6.85,-3.26,-1.50,7.73
13.554,2.16,-1.05,0.23,2.42
13.554,0.16,-0.46,-1.55,1.62
13.561,0.16,-0.27,-0.66,0.73
13.565,-0.48,0.16,-0.72,0.88
13.570,-1.51,0.19,-0.56,1.62
13.577,-1.37,0.27,-0.59,1.52
13.581,-0.78,-0.00,-0.31,0.84
13.585,-0.19,-0.00,-0.10,0.22
13.591,0.23,-0.16,0.00,0.28
13.595,0.35,-0.34,-0.18,0.52
13.601,0.37,-0.44,-0.47,0.74
13.607,0.22,-0.44,-0.50,0.70
13.611,0.45,-0.35,-0.29,0.64
13.616,0.46,-0.32,-0.13,0.58
13.620,0.35,-0.35,-0.28,0.56
13.626,0.14,-0.34,-0.52,0.63
13.631,0.16,-0.35,-0.56,0.68
13.636,0.32,-0.32,-0.30,0.54
13.642,0.34,-0.29,-0.28,0.53
13.649,0.22,-0.28,-0.61,0.71
13.650,-0.01,-0.27,-0.60,0.66
13.666,-0.15,-0.24,-0.26,0.38
13.667,-0.16,-0.07,0.11,0.21
13.668,-0.10,-0.03,0.01,0.10
13.669,0.05,-0.15,-0.32,0.36
13.674,0.14,-0.30,-0.52,0.62
13.677,0.12,-0.29,-0.29,0.42
13.681,0.25,-0.29,-0.10,0.40
13.687,-0.00,-0.18,-0.13,0.22
13.693,-0.05,-0.20,-0.36,0.42
13.697,-0.01,-0.18,-0.46,0.49
13.705,-0.09,-0.14,-0.23,0.29
13.709,-0.15,-0.09,-0.21,0.28
13.712,-0.18,-0.15,-0.27,0.36
13.717,-0.15,-0.19,-0.23,0.33
13.723,-0.10,-0.18,-0.22,0.30
13.727,-0.11,-0.13,-0.13,0.22
13.732,-0.12,-0.12,-0.26,0.31
13.736,-0.17,-0.12,-0.36,0.41
13.743,-0.19,-0.13,-0.36,0.43
13.748,-0.20,-0.14,-0.36,0.44
13.752,-0.21,-0.14,-0.24,0.34
13.758,-0.40,-0.15,-0.33,0.54
13.763,-1.00,-0.22,-0.50,1.14
13.767,-1.44,-0.29,-0.57,1.58
13.774,-1.58,-0.31,-0.48,1.68
13.777,-1.58,-0.34,-0.34,1.65
13.784,-1.48,-0.40,-0.25,1.55
13.799,-1.18,-0.45,-0.22,1.28
13.800,-0.72,-0.42,-0.25,0.87
13.801,-0.31,-0.33,-0.22,0.51
13.802,-0.07,-0.25,-0.21,0.33
13.808,-0.06,-0.18,-0.26,0.32
13.813,-0.15,-0.13,-0.30,0.36
13.817,-0.12,-0.09,-0.36,0.39
13.824,0.11,-0.01,-0.42,0.43
13.828,0.22,0.02,-0.36,0.42
13.833,0.10,-0.03,-0.32,0.34
13.839,0.16,-0.03,-0.41,0.45
13.843,0.61,0.07,-0.35,0.71
13.848,1.15,0.13,-0.22,1.18
13.852,1.21,0.09,-0.19,1.23
13.858,0.73,0.07,-0.14,0.74
13.864,-0.02,-0.06,-0.09,0.11
13.868,-0.15,-0.15,-0.40,0.46
13.876,0.27,0.26,-0.81,0.89
13.879,0.10,0.18,-0.10,0.23
13.884,0.70,-0.32,0.22,0.80
13.889,0.65,-0.00,-0.29,0.72
13.894,0.38,0.04,-0.28,0.48
13.899,0.15,-0.24,-0.45,0.53
13.905,-0.06,-0.34,-0.44,0.55
13.909,-0.05,-0.36,-0.37,0.52
13.914,0.08,-0.32,-0.01,0.33
13.921,-0.04,0.31,0.57,0.65
13.927,-0.01,0.02,-1.08,1.08
13.931,-0.06,-0.25,-1.00,1.03
13.937,0.09,-0.08,0.10,0.15
13.952,0.01,-0.13,0.20,0.24
13.953,-0.01,-0.18,-0.07,0.19
13.954,-0.13,-0.08,-0.71,0.72
13.954,-0.06,0.19,-0.83,0.86
13.960,-0.03,0.10,-0.49,0.50
13.965,0.00,0.01,0.06,0.06
13.971,-0.18,-0.06,0.35,0.40
13.975,-0.23,-0.14,-0.29,0.40
13.980,-0.42,-0.27,-1.18,1.29
13.985,-0.35,-0.48,-1.23,1.37
13.991,-0.11,-0.40,-0.78,0.89
13.995,-0.17,-0.31,-0.71,0.79
14.000,0.33,0.08,2.43,2.46
14.006,0.23,-0.07,1.47,1.49
14.010,-0.49,-0.34,-1.27,1.40
14.015,-0.63,-0.26,-2.27,2.37
14.022,-0.48,-0.12,-1.80,1.87
14.029,-0.08,0.09,0.73,0.74
14.030,0.36,0.20,1.90,1.94
14.035,0.35,-0.13,0.71,0.81
14.040,-0.14,-0.24,-1.22,1.25
14.046,-0.37,-0.03,-2.36,2.39
14.050,-0.38,-0.09,-0.92,1.00
14.056,-0.17,-0.06,0.44,0.48
14.060,0.10,-0.18,1.25,1.27
14.065,-0.01,-0.31,0.34,0.46
14.079,-0.13,-0.20,-1.00,1.03
14.080,-0.34,-0.07,-1.29,1.34
14.080,-0.25,0.11,-0.74,0.79
14.087,-0.18,-0.10,0.22,0.30
14.091,0.07,-0.39,0.64,0.75
14.096,0.07,-0.24,0.29,0.39
14.101,-0.07,-0.10,-0.65,0.66
14.106,-0.32,-0.10,-1.00,1.05
14.111,-0.38,-0.08,-0.73,0.83
14.116,-0.28,-0.15,-0.05,0.32
14.117,-0.04,-0.28,0.33,0.44
14.121,0.12,-0.12,0.16,0.23
14.126,0.06,0.04,-0.54,0.55
14.131,-0.07,0.07,-0.91,0.92
14.137,-0.20,-0.11,-0.66,0.70
14.141,-0.27,-0.18,-0.01,0.32
14.147,-0.14,-0.13,0.33,0.38
14.154,-0.06,-0.13,-0.05,0.15
14.159,-0.07,-0.13,-0.59,0.61
14.162,-0.17,-0.12,-0.74,0.77
14.166,-0.23,-0.17,-0.47,0.55
14.171,-0.20,-0.22,0.05,0.30
14.176,-0.09,-0.18,0.11,0.22
14.181,-0.04,-0.13,-0.22,0.26
14.188,-0.01,-0.06,-0.58,0.59
14.192,-0.10,0.01,-0.44,0.45
14.197,-0.15,0.02,-0.15,0.21
14.212,-0.28,-0.11,-0.12,0.32
14.213,-0.27,-0.31,-0.45,0.61
14.213,-0.16,-0.38,-0.58,0.71
14.217,-0.01,-0.23,-0.33,0.40
14.225,0.12,-0.09,0.03,0.15
14.229,-0.04,0.06,-0.02,0.07
14.232,-0.24,0.07,-0.34,0.42
14.237,-0.27,-0.13,-0.61,0.68
14.242,-0.24,-0.38,-0.58,0.73
14.248,-0.17,-0.30,-0.19,0.39
14.252,-0.05,-0.11,0.12,0.17
14.259,-0.02,-0.18,-0.03,0.18
14.263,-0.20,-0.16,-0.42,0.49
14.268,-0.25,0.03,-0.69,0.73
14.274,-0.20,0.00,-0.55,0.59
14.277,-0.12,-0.12,-0.16,0.24
14.284,0.01,-0.05,0.11,0.12
14.290,-0.02,-0.07,0.02,0.07
14.294,-0.15,-0.23,-0.39,0.48
14.299,-0.31,-0.16,-0.62,0.71
14.303,-0.32,-0.08,-0.53,0.62
14.309,-0.14,-0.26,-0.29,0.41
14.314,-0.00,-0.31,-0.02,0.31
14.318,0.02,-0.15,0.05,0.16
14.324,-0.06,-0.15,-0.21,0.26
14.330,-0.22,-0.10,-0.57,0.62
14.338,-0.28,0.09,-0.64,0.70
14.339,-0.19,0.06,-0.39,0.43
14.344,-0.07,-0.09,-0.06,0.13
14.348,-0.01,0.02,0.03,0.04
14.376,-0.04,-0.01,-0.25,0.25
14.377,-0.15,-0.18,-0.60,0.65
14.378,-0.17,-0.33,-0.65,0.74
14.379,-0.19,-0.34,-0.40,0.56
14.379,-0.16,-0.20,0.04,0.25
14.380,-0.02,-0.22,0.08,0.24
14.383,-0.05,0.00,-0.30,0.30
14.390,-0.16,0.08,-0.54,0.57
14.394,-0.27,-0.12,-0.54,0.61
14.399,-0.28,-0.14,-0.25,0.40
14.405,-0.24,-0.19,-0.14,0.33
14.410,-0.08,-0.28,-0.29,0.41
14.414,-0.05,-0.24,-0.27,0.37
14.422,-0.02,-0.09,-0.21,0.24
14.426,-0.09,-0.11,-0.19,0.24
14.430,-0.19,-0.11,-0.22,0.31
14.435,-0.17,-0.06,-0.44,0.48
14.442,-0.17,0.01,-0.41,0.45
14.450,-0.07,-0.03,-0.26,0.27
14.450,0.02,-0.03,0.01,0.03
14.456,-0.06,-0.07,-0.04,0.10
14.460,-0.15,-0.11,-0.22,0.29
14.465,-0.21,-0.16,-0.60,0.65
14.471,-0.17,-0.26,-0.59,0.67
14.475,-0.07,-0.28,-0.30,0.41
14.480,-0.07,-0.20,0.11,0.24
14.510,-0.11,-0.16,0.13,0.23
14.511,-0.26,-0.14,-0.47,0.56
14.512,-0.33,0.06,-0.86,0.92
14.513,-0.24,-0.11,-0.70,0.75
14.513,-0.10,-0.23,-0.23,0.34
14.514,0.00,-0.15,0.24,0.28
14.515,0.03,-0.15,0.15,0.21
14.521,-0.08,-0.11,-0.51,0.52
14.526,-0.20,-0.04,-0.76,0.78
14.531,-0.18,-0.06,-0.55,0.58
14.537,-0.14,-0.12,0.44,0.47
14.541,0.03,-0.24,0.30,0.39
14.547,-0.07,-0.16,-0.13,0.22
14.551,-0.16,-0.12,-0.40,0.45
14.556,-0.26,-0.16,-1.13,1.17
14.561,-0.21,-0.20,-0.57,0.64
14.568,-0.16,-0.17,-0.09,0.25
14.579,-0.07,-0.20,0.29,0.36
14.580,-0.11,0.08,0.17,0.22
14.581,0.20,0.00,-0.48,0.52
14.586,0.71,-0.49,-0.81,1.18
14.587,2.11,-0.95,-0.87,2.47
14.591,1.82,-1.00,-0.65,2.18
14.597,0.90,-0.70,-0.13,1.14
14.603,-0.02,-0.09,0.03,0.10
14.607,-0.64,0.29,-0.38,0.80
14.612,-0.97,0.25,-0.39,1.08
14.646,-1.36,0.55,-0.31,1.50
14.647,-1.28,0.55,-0.13,1.40
14.647,-0.98,0.16,0.65,1.18
14.648,-0.42,-0.29,0.30,0.60
14.649,-0.05,-0.34,-0.10,0.35
14.650,0.05,-0.21,-0.56,0.60
14.650,0.08,-0.14,-1.06,1.07
14.651,-0.11,-0.22,-0.77,0.81
14.658,0.20,-0.57,-0.61,0.86
14.662,0.41,-0.67,-0.08,0.79
14.669,0.47,-0.55,-0.15,0.74
14.673,-3.42,1.30,-0.25,3.67
14.677,-1.74,1.34,-0.85,2.35
14.684,0.35,0.54,-0.95,1.15
14.688,-0.08,0.18,0.12,0.23
14.693,-0.04,0.10,0.62,0.63
14.697,0.17,-0.37,-0.03,0.40
14.703,-0.11,-0.68,-0.65,0.95
14.708,-0.16,-0.50,-0.67,0.85
14.713,-0.06,-0.09,-0.32,0.34
14.718,-0.16,-0.08,0.26,0.32
14.723,-0.19,-0.20,-0.05,0.28
14.729,-0.23,-0.12,-0.40,0.48
14.735,-0.29,-0.21,-0.32,0.48
14.738,-0.19,-0.33,-0.27,0.47
14.743,-0.15,-0.31,-0.01,0.34
14.752,-0.07,-0.28,-0.01,0.29
14.755,-0.01,-0.11,-0.23,0.25
14.758,-0.08,0.07,-0.38,0.40
14.764,-0.11,-0.04,-0.65,0.66
14.800,-0.17,-0.11,-0.74,0.77
14.800,-0.20,-0.06,-0.42,0.47
14.801,-0.11,-0.14,-0.06,0.19
14.802,0.05,-0.19,0.02,0.20
14.803,0.01,0.01,-0.13,0.13
14.803,-0.03,0.40,-0.24,0.47
14.804,0.04,0.64,-0.16,0.66
14.805,-0.09,0.51,-0.36,0.64
14.810,-0.18,0.41,-0.44,0.62
14.813,-0.08,0.18,-0.38,0.42
14.821,-0.27,0.37,-0.57,0.74
14.824,-0.27,0.73,-0.24,0.81
14.830,-0.30,1.06,-0.14,1.11
14.834,-0.36,1.54,-0.27,1.60
14.839,-0.44,0.86,-0.24,1.00
14.845,-0.59,-0.11,-0.80,1.00
14.849,-0.61,-0.18,-0.35,0.73
14.858,-0.45,-0.07,0.36,0.58
14.859,-0.32,-0.36,0.29,0.56
14.866,-0.55,-1.09,-0.01,1.22
14.870,-0.23,-0.74,-0.66,1.02
14.875,-0.09,-0.68,-0.38,0.78
14.880,0.14,-1.06,-0.28,1.10
14.886,0.14,-1.41,0.05,1.42
14.892,0.27,-0.76,-0.53,0.96
14.893,-0.03,-0.53,-0.84,1.00
14.903,-0.13,-0.31,-0.59,0.68
14.905,-0.17,0.27,0.15,0.36
14.913,-0.00,0.58,0.02,0.58
14.914,-0.07,-0.10,-0.63,0.64
14.940,-0.45,-0.23,-0.87,1.01
14.941,-0.61,0.01,-0.11,0.62
14.941,-0.53,0.09,0.41,0.67
14.941,-0.40,-0.04,0.40,0.56
14.945,-0.44,0.27,-0.26,0.58
14.946,-0.51,1.06,-0.53,1.29
14.950,-1.17,-0.05,-0.19,1.19
14.956,-0.45,0.07,-0.48,0.66
14.961,-0.32,0.15,-0.05,0.35
14.966,0.40,-0.08,-0.11,0.42
14.974,1.69,-0.93,-0.55,2.00
14.976,4.60,-1.96,-0.60,5.03
14.982,-0.46,-0.28,-0.35,0.64
14.987,-0.23,-0.33,0.64,0.75
14.991,0.08,-0.44,-0.05,0.45
14.995,-0.07,-0.12,-0.55,0.57
15.004,0.55,0.50,-0.70,1.02
15.006,1.18,0.63,-0.67,1.49
15.010,1.02,-0.11,-0.18,1.05
15.016,0.48,0.23,0.25,0.58
15.022,-0.23,0.13,-0.01,0.26
15.060,-0.26,-0.04,-0.81,0.85
15.061,-0.43,0.19,-0.26,0.54
15.062,0.38,0.16,-0.25,0.48
15.063,0.04,-0.20,-1.01,1.03
15.064,-0.56,-0.13,-0.29,0.65
15.065,-0.70,0.09,0.21,0.74
15.065,-0.23,0.03,0.29,0.37
15.066,-0.14,-0.20,-0.31,0.39
15.067,-0.32,-0.05,-0.39,0.51
15.068,-0.64,-0.01,-0.58,0.87
15.072,-0.63,-0.43,-0.71,1.04
15.077,-0.64,-0.26,-0.47,0.83
15.082,-0.53,-0.12,-0.58,0.79
15.092,-0.35,0.07,-0.67,0.76
15.093,-0.18,0.16,-0.43,0.49
15.099,-0.21,0.23,-0.07,0.32
15.105,-0.21,0.30,-0.07,0.37
15.108,-0.20,0.20,-0.51,0.59
15.112,-0.14,0.09,-0.41,0.44
15.122,0.17,-0.10,0.28,0.34
15.123,0.37,-0.28,0.66,0.81
15.126,0.29,-0.13,0.39,0.50
15.134,-0.02,-0.16,-0.42,0.45
15.137,-0.46,0.52,-1.05,1.26
15.143,-0.14,0.06,-0.45,0.47
15.153,-0.06,-0.17,-0.56,0.59
15.154,0.35,0.20,-0.92,1.00
15.158,0.87,0.17,-0.64,1.09
15.167,0.82,0.09,-0.10,0.83
15.172,0.34,0.18,0.47,0.61
15.173,0.04,0.20,0.13,0.24
15.211,0.21,-0.12,-0.64,0.68
15.212,-0.03,-0.29,-0.81,0.86
15.212,0.08,-0.19,-0.20,0.29
15.213,0.34,0.21,-0.40,0.57
15.214,0.00,0.36,-0.19,0.41
15.215,-0.54,0.01,0.28,0.60
15.216,-0.81,-0.23,0.66,1.07
15.217,-1.00,-0.29,0.16,1.05
15.220,-1.18,-0.24,-0.83,1.47
15.224,-0.85,-0.34,-0.83,1.23
15.231,-0.42,-0.51,-1.13,1.31
15.234,0.01,-0.63,-0.76,0.99
15.245,0.82,-1.10,0.03,1.37
15.246,1.16,-1.71,0.04,2.07
15.251,0.21,-1.69,-0.71,1.85
15.255,-0.61,-1.23,-0.27,1.39
15.258,-0.57,-1.37,0.59,1.60
15.265,-0.50,-1.29,0.15,1.39
15.275,-0.52,-0.40,0.12,0.67
15.276,-0.48,0.11,-0.15,0.52
15.280,-0.29,0.59,-0.25,0.71
15.284,-0.20,1.10,-0.39,1.18
15.289,-0.19,1.06,-0.73,1.30
15.297,-0.44,0.39,-0.94,1.11
15.305,-0.51,0.95,-0.97,1.45
15.306,-0.19,1.30,-0.36,1.36
15.310,-0.06,0.54,-0.17,0.57
15.317,0.07,-0.30,0.49,0.58
15.326,0.02,-0.62,0.55,0.83
15.327,-0.29,-1.22,0.11,1.26
15.368,-0.44,-0.99,-0.10,1.09
15.369,-0.61,-0.34,-0.63,0.94
15.370,-0.84,-0.41,-1.48,1.75
15.370,-0.48,-1.13,-1.52,1.96
15.371,-0.68,-1.80,0.23,1.94
15.372,-0.14,-1.40,0.61,1.53
15.373,-0.19,-0.70,0.04,0.73
15.374,-0.19,-2.23,-0.85,2.39
15.375,-0.32,-1.12,-0.65,1.34
15.375,-0.31,-1.34,-0.36,1.42
15.380,-0.14,-0.93,-0.06,0.94
15.386,-0.10,-0.64,-0.23,0.69
15.390,0.36,-0.38,-0.18,0.55
15.397,-0.12,1.28,0.50,1.38
15.402,-0.45,-0.09,-0.32,0.56
15.406,-1.15,0.54,-1.65,2.08
15.410,-1.86,1.21,0.41,2.26
15.417,-0.57,0.96,-0.73,1.33
15.420,0.43,1.58,0.19,1.65
15.426,0.82,0.93,0.49,1.34
15.431,0.52,0.83,-0.36,1.04
15.436,0.05,1.95,0.66,2.06
15.441,-0.12,1.45,-1.03,1.79
15.448,-0.50,1.78,-1.70,2.51
15.451,-0.36,1.88,-1.12,2.22
15.458,-0.25,1.48,-0.95,1.78
15.484,-0.04,1.61,-0.36,1.65
15.485,-0.02,1.95,-0.39,1.99
15.486,0.55,1.23,0.57,1.46
15.487,0.57,0.40,0.81,1.07
15.488,0.49,0.63,-1.04,1.31
15.489,-0.46,1.67,-1.57,2.33
15.493,-0.09,1.58,0.32,1.61
15.499,0.42,1.82,1.18,2.20
15.500,0.02,1.73,0.65,1.85
15.507,0.04,1.89,-0.81,2.05
15.513,0.35,1.62,-1.24,2.07
15.514,0.05,1.64,-0.62,1.76
15.517,-0.16,2.26,0.52,2.32
15.522,-0.02,1.91,0.03,1.91
15.530,0.49,1.30,0.54,1.49
15.534,0.40,1.88,-0.45,1.97
15.537,0.08,1.82,-1.30,2.23
15.542,0.01,0.98,0.22,1.01
15.547,0.19,0.31,1.07,1.13
15.552,0.01,-0.17,-0.96,0.98
15.557,0.09,-0.46,-0.98,1.09
15.561,0.28,-0.14,-0.12,0.33
15.567,0.46,0.54,0.37,0.80
15.572,0.14,0.50,-0.04,0.52
15.581,-0.17,0.12,-0.81,0.84
15.584,-0.43,0.02,-0.76,0.87
15.586,-0.26,0.05,-0.16,0.31
15.591,-0.10,0.12,0.23,0.28
15.619,-0.03,0.14,-0.01,0.14
15.620,0.02,0.16,-0.45,0.48
15.620,-0.07,0.30,-0.51,0.59
15.621,-0.09,0.21,-0.22,0.31
15.621,-0.06,0.07,-0.21,0.23
15.621,-0.04,0.01,-0.42,0.43
15.631,0.02,0.07,-0.45,0.46
15.632,0.02,0.23,-0.27,0.36
15.636,-0.02,0.38,-0.04,0.39
15.644,-0.06,0.32,-0.21,0.39
15.650,-0.10,0.17,-0.62,0.66
15.651,-0.09,0.12,-0.66,0.67
15.657,0.02,0.10,-0.28,0.29
15.663,0.14,0.15,0.05,0.21
15.667,0.10,0.25,-0.02,0.27
15.673,-0.05,0.22,-0.36,0.42
15.678,-0.18,0.11,-0.56,0.60
15.683,-0.20,0.09,-0.40,0.46
15.688,-0.14,0.12,-0.11,0.21
15.693,-0.08,0.17,-0.02,0.19
15.697,-0.05,0.20,-0.20,0.29
15.704,-0.06,0.18,-0.42,0.46
15.711,-0.07,0.21,-0.48,0.53
15.714,-0.02,0.27,-0.31,0.41
15.719,0.01,0.24,-0.11,0.26
15.723,0.01,0.24,-0.20,0.31
15.729,-0.05,0.20,-0.42,0.47
15.734,-0.12,0.14,-0.49,0.52
15.740,-0.12,0.23,-0.33,0.42
15.746,-0.05,0.23,-0.24,0.33
15.752,0.02,0.15,0.01,0.16
15.753,0.07,0.21,-0.19,0.29
15.793,0.06,0.25,-0.30,0.40
15.794,-0.06,0.16,-0.50,0.53
15.794,-0.13,0.10,-0.43,0.46
15.795,-0.13,0.04,-0.14,0.20
15.796,-0.12,0.10,-0.13,0.20
15.797,-0.15,0.22,-0.36,0.45
15.797,-0.07,0.31,-0.40,0.51
15.798,0.02,0.33,-0.47,0.57
15.799,-0.04,0.31,-0.24,0.39
15.805,-0.01,0.24,-0.13,0.27
15.811,0.03,0.23,-0.23,0.33
15.815,0.05,0.25,-0.25,0.36
15.819,0.04,0.29,-0.37,0.47
15.827,0.04,0.32,-0.34,0.46
15.830,-0.02,0.41,-0.19,0.45
15.835,-0.09,0.37,-0.08,0.39
15.840,-0.07,0.20,-0.13,0.25
15.846,-0.08,0.36,-0.55,0.66
15.850,-0.04,0.47,-0.31,0.56
15.855,0.12,0.55,-0.24,0.61
15.861,0.05,0.74,-0.06,0.74
15.866,-0.07,0.78,-0.02,0.78
15.870,-0.07,1.07,-0.59,1.23
15.897,-0.30,0.70,-0.36,0.84
15.898,0.02,0.42,-0.36,0.56
15.898,0.04,0.64,-0.45,0.78
15.899,-0.24,0.55,-0.73,0.95
15.900,-0.05,0.72,-0.12,0.73
15.901,0.08,1.61,-0.59,1.72
15.907,0.09,0.42,0.13,0.45
15.911,0.44,-0.80,2.73,2.88
15.915,0.09,-1.71,1.30,2.15
15.920,-0.45,-1.65,-4.27,4.60
15.927,-1.19,-1.63,-5.29,5.66
15.932,-0.47,-1.45,1.17,1.92
15.938,0.27,-0.13,3.65,3.67
15.942,0.14,1.22,1.92,2.28
15.946,0.59,-0.49,-2.63,2.74
15.952,-0.46,0.13,-2.73,2.78
15.957,-0.10,0.90,1.16,1.48
15.961,-0.10,0.85,1.30,1.56
15.967,-0.47,-0.25,-0.05,0.53
15.972,0.03,-0.68,-1.25,1.42
15.973,0.38,0.30,-0.36,0.60
15.978,0.63,0.29,0.63,0.94
15.982,0.43,0.15,0.47,0.65
15.988,-0.29,0.07,-0.11,0.31
15.991,-0.74,-0.06,-1.66,1.82
15.998,-0.57,-0.11,-1.30,1.42
16.003,-0.09,-0.24,0.03,0.26
16.012,0.33,-0.34,0.66,0.81
16.013,0.35,-0.35,-0.08,0.50
16.023,0.06,0.42,-0.68,0.80
16.024,-0.26,0.69,-0.65,0.98
16.056,-0.39,0.27,-1.47,1.54
16.057,-0.49,0.31,-0.89,1.06
16.057,0.20,0.26,0.13,0.35
16.058,0.33,0.53,1.02,1.19
16.059,0.04,1.01,0.42,1.10
16.060,0.08,0.98,-0.95,1.37
16.060,0.04,0.37,-0.94,1.01
16.063,0.16,-0.21,0.29,0.39
16.069,0.06,-0.30,0.16,0.34
16.073,-0.22,0.08,-0.82,0.85
16.079,-0.22,0.27,-0.91,0.98
16.083,-0.12,0.24,-0.57,0.63
16.089,0.06,0.19,0.15,0.24
16.096,0.14,0.25,0.38,0.48
16.097,0.01,0.42,0.12,0.44
16.104,-0.18,0.39,-0.22,0.48
16.108,-0.35,0.19,-0.63,0.75
16.114,-0.52,0.20,-0.47,0.73
16.118,-0.51,0.21,-0.39,0.67
16.125,-0.45,0.05,-0.56,0.73
16.131,-0.47,-0.07,-0.66,0.81
16.134,-0.30,-0.09,-0.61,0.69
16.139,0.10,-0.03,-0.21,0.23
16.144,0.13,-0.21,0.12,0.28
16.149,0.09,-0.43,0.03,0.44
16.154,1.80,0.59,-0.14,1.90
16.161,2.08,1.15,-0.36,2.40
16.164,0.18,0.50,-0.34,0.63
16.172,0.15,0.45,0.36,0.60
16.219,0.09,-0.03,0.42,0.43
16.220,-0.13,-0.27,-0.30,0.42
16.221,-0.51,-0.19,-0.72,0.90
16.222,-1.01,-0.16,-0.87,1.34
16.222,-1.19,-0.03,-0.57,1.32
16.223,-0.79,0.14,0.09,0.81
16.224,-0.34,-0.04,0.13,0.36
16.225,-0.22,0.01,-0.19,0.29
16.225,-0.11,0.15,-0.59,0.62
16.226,1.04,-0.53,-0.71,1.37
16.227,2.01,-1.06,-0.38,2.31
16.230,-1.00,0.70,0.04,1.22
16.235,-0.63,0.25,0.11,0.68
16.242,-0.22,0.31,-1.19,1.25
16.245,-0.30,0.11,-0.03,0.32
16.250,-0.07,0.01,0.37,0.37
16.255,-0.16,-0.16,0.47,0.52
16.260,-0.19,0.23,-0.52,0.60
16.265,-0.11,0.35,-0.62,0.72
16.270,0.17,1.16,-0.69,1.37
16.275,-0.12,1.15,-0.10,1.16
16.280,-0.15,0.66,-0.64,0.93
16.285,-0.17,0.85,-0.43,0.97
16.295,-0.12,0.43,-0.23,0.51
16.296,0.00,-0.04,-0.23,0.24
16.299,0.10,-0.03,-0.04,0.12
16.329,0.12,-0.22,-0.04,0.26
16.330,-0.08,-0.13,-0.29,0.33
16.330,-0.09,-0.08,-0.46,0.48
16.331,-0.09,-0.03,-0.14,0.17
16.331,-0.20,0.04,0.04,0.21
16.332,-0.30,0.24,-0.08,0.39
16.335,1.86,1.42,-2.40,3.35
16.341,2.01,0.84,-0.12,2.19
16.346,0.82,0.79,0.87,1.43
16.350,0.27,0.17,-0.35,0.47
16.357,-0.21,0.04,-0.84,0.87
16.362,-0.27,0.19,-0.28,0.43
16.366,-0.40,0.02,0.62,0.73
16.371,-0.90,0.17,0.32,0.97
16.377,-1.05,-0.01,-0.64,1.23
16.381,-0.33,-0.16,-0.46,0.59
16.386,-0.69,-0.07,-0.14,0.71
16.392,-0.60,0.02,-0.15,0.62
16.396,-0.69,0.04,-0.48,0.84
16.402,-0.37,0.04,-0.72,0.81
16.406,-0.30,0.07,-0.56,0.64
16.413,-0.13,0.16,-0.39,0.44
16.417,-0.09,0.16,-0.47,0.51
16.420,-0.25,0.17,-0.63,0.70
16.428,0.04,0.07,0.47,0.48
16.432,0.11,0.33,0.27,0.44
16.437,0.09,0.25,0.10,0.28
16.438,-0.13,0.35,-0.59,0.70
16.474,-0.14,0.40,-0.70,0.82
16.475,-0.16,0.01,-0.66,0.68
16.476,-0.11,0.49,-1.01,1.13
16.477,-0.16,-0.01,-0.37,0.40
16.478,-0.26,0.48,-1.42,1.52
16.478,-0.17,-0.14,0.34,0.40
16.479,-0.36,0.45,-1.71,1.80
16.480,0.21,0.25,1.62,1.65
16.481,0.27,-1.28,2.40,2.73
16.487,0.23,0.65,-1.60,1.74
16.493,0.24,0.48,-0.36,0.64
16.497,-0.01,-0.39,-0.11,0.41
16.503,-0.24,-0.14,0.64,0.70
16.507,-0.45,-0.26,0.55,0.75
16.513,-0.55,0.38,-1.82,1.94
16.518,-0.50,0.10,-1.41,1.50
16.522,-0.27,0.16,-0.52,0.61
16.532,-0.09,0.53,0.11,0.54
16.532,-0.01,0.39,-0.25,0.46
16.540,0.15,0.06,-0.03,0.17
16.544,0.29,0.23,0.07,0.37
16.549,0.30,0.55,-0.55,0.83
16.553,0.08,0.30,-0.90,0.96
16.558,-0.07,0.20,-0.67,0.70
16.563,-0.16,0.10,-0.06,0.20
16.568,-0.24,-0.03,0.06,0.25
16.575,-0.23,0.01,-0.30,0.38
16.579,-0.24,-0.18,-0.46,0.55
16.583,-0.23,-0.36,-0.33,0.54
16.618,-0.23,-0.32,-0.47,0.61
16.618,-0.22,-0.26,-0.45,0.57
16.619,-0.13,-0.32,0.18,0.39
16.620,-0.03,-0.41,0.58,0.71
16.621,0.01,-0.04,0.23,0.23
16.622,-0.04,0.59,-0.45,0.74
16.622,-0.13,0.76,-0.87,1.16
16.623,-0.10,0.59,-0.66,0.89
16.630,-0.01,0.47,-0.14,0.49
16.633,0.02,0.23,-0.03,0.23
16.640,-0.00,-0.15,-0.37,0.40
16.644,-0.03,-0.39,-0.65,0.76
16.650,-0.03,-0.59,-0.42,0.73
16.655,-0.10,-0.97,-0.21,1.00
16.659,-0.09,-1.22,-0.08,1.22
16.664,-0.15,-1.20,-0.01,1.21
16.669,-0.30,-1.30,-0.31,1.37
16.676,-0.40,-1.24,-0.45,1.38
16.680,-0.32,-1.40,-0.40,1.49
16.684,-0.02,-0.96,-0.60,1.13
16.690,-0.25,-0.85,0.06,0.89
16.694,-0.35,-1.27,0.19,1.33
16.700,-0.03,-0.55,-0.30,0.63
16.709,-0.13,-0.71,0.01,0.72
16.711,0.02,-0.68,-0.22,0.72
16.717,0.04,-0.55,0.28,0.62
16.740,-0.13,0.18,-0.46,0.51
16.741,-0.41,-0.16,-0.40,0.59
16.742,-0.10,0.56,-0.68,0.89
16.742,-0.31,0.60,-0.52,0.85
16.743,-0.34,-0.57,-0.92,1.13
16.744,0.32,0.71,0.19,0.80
16.751,0.26,0.32,0.59,0.72
16.754,0.07,-0.37,-0.09,0.39
16.760,0.34,1.55,-0.27,1.61
16.765,0.10,1.86,-1.09,2.16
16.771,-0.68,0.62,-0.89,1.28
16.777,-0.47,1.21,-0.59,1.42
16.781,-0.14,1.53,-0.37,1.58
16.785,0.18,2.01,0.31,2.05
16.791,0.29,1.66,0.30,1.72
16.796,-0.01,1.53,-1.15,1.92
16.800,-0.40,0.34,-1.37,1.47
16.805,0.04,0.45,0.04,0.46
16.810,0.75,0.61,1.91,2.14
16.816,0.29,0.13,0.62,0.70
16.820,0.00,0.40,-0.44,0.59
16.826,-0.59,0.26,-2.04,2.14
16.831,-0.71,0.97,-1.13,1.65
16.838,-0.00,0.65,-0.01,0.65
16.843,0.19,0.17,0.22,0.34
16.846,0.28,0.06,0.68,0.74
16.851,-0.06,0.46,-0.49,0.67
16.858,-0.04,0.74,-1.25,1.45
16.862,-0.08,0.91,-1.20,1.51
16.868,-0.35,0.09,0.63,0.72
16.892,0.00,0.68,0.14,0.69
16.893,-0.03,0.69,0.23,0.73
16.894,-0.10,0.13,-0.50,0.52
16.895,-0.11,0.30,-0.87,0.93
16.895,-0.07,0.72,-0.31,0.78
16.896,-0.10,0.30,-0.55,0.64
16.904,-0.06,0.33,-0.16,0.37
16.905,0.13,0.34,0.50,0.62
16.906,-0.03,0.50,-0.34,0.61
16.911,-0.24,0.53,-0.75,0.95
16.917,-0.27,0.15,-0.87,0.93
16.923,-0.18,0.09,-0.30,0.36
16.927,-0.04,0.10,0.41,0.42
16.932,0.04,0.02,0.26,0.27
16.936,-0.03,0.02,-0.49,0.49
16.942,-0.09,0.12,-0.84,0.85
16.949,-0.07,0.13,-0.79,0.80
16.954,-0.05,0.10,-0.27,0.30
16.962,-0.07,0.03,0.16,0.18
16.963,-0.18,-0.04,0.08,0.20
16.971,-0.23,0.01,-0.30,0.38
16.972,-0.16,0.12,-0.68,0.71
16.977,-0.09,0.18,-0.54,0.58
16.982,0.03,0.13,-0.39,0.41
16.987,-0.01,0.07,-0.27,0.28
16.992,-0.07,0.03,-0.21,0.23
16.997,-0.22,-0.04,-0.27,0.35
17.005,-0.16,-0.05,-0.31,0.36
17.012,-0.05,0.19,0.03,0.19
17.014,-0.00,0.34,-0.02,0.34
17.016,0.09,0.12,-0.18,0.24
17.047,0.06,0.07,-0.06,0.11
17.048,-0.08,-0.02,-0.03,0.08
17.048,-0.15,-0.14,-0.27,0.34
17.049,-0.18,-0.11,-0.75,0.78
17.049,-0.14,-0.06,-0.65,0.67
17.050,0.13,0.12,0.22,0.29
17.053,0.08,0.59,0.53,0.80
17.058,-0.13,0.55,-0.08,0.58
17.063,-0.22,0.09,-0.69,0.73
17.069,-0.31,0.10,-0.84,0.90
17.073,-0.03,-0.20,-0.60,0.64
17.078,0.09,-0.42,-0.16,0.46
17.085,0.09,0.04,0.36,0.37
17.088,0.16,0.03,0.10,0.19
17.094,-0.21,0.11,-0.52,0.57
17.099,-0.39,0.50,-0.68,0.93
17.103,-0.24,0.31,-0.75,0.85
17.108,-0.16,0.07,-0.17,0.24
17.115,0.01,0.14,0.30,0.33
17.123,0.18,-0.05,0.10,0.21
17.124,-0.01,-0.30,-0.28,0.40
17.130,-0.24,-0.03,-0.68,0.72
17.133,-0.18,0.10,-0.70,0.73
17.158,-0.15,0.04,-0.38,0.41
17.158,-0.08,0.24,0.03,0.26
17.159,0.04,0.25,0.11,0.27
17.160,-0.08,0.18,-0.18,0.27
17.161,-0.19,0.17,-0.51,0.57
17.165,-0.12,0.12,-0.72,0.74
17.169,-0.12,0.03,-0.50,0.52
17.175,-0.06,-0.17,-0.14,0.23
17.180,0.03,-0.02,0.08,0.09
17.187,0.01,0.11,-0.05,0.12
17.190,-0.10,0.06,-0.46,0.47
17.195,-0.21,0.21,-0.69,0.75
17.199,-0.26,0.20,-0.56,0.64
17.205,-0.13,0.11,-0.15,0.23
17.210,-0.07,0.09,0.08,0.14
17.215,-0.02,0.09,-0.00,0.10
17.223,-0.02,-0.05,-0.41,0.41
17.224,-0.09,-0.00,-0.56,0.56
17.230,-0.17,0.15,-0.45,0.51
17.235,-0.14,0.08,-0.27,0.31
17.240,-0.05,0.18,-0.09,0.21
17.246,-0.06,0.13,-0.12,0.19
17.253,-0.04,0.11,-0.35,0.37
17.256,-0.08,0.08,-0.51,0.52
17.261,-0.13,0.07,-0.42,0.44
17.266,-0.10,0.06,-0.29,0.31
17.272,-0.12,-0.01,-0.14,0.19
17.276,-0.07,0.06,-0.18,0.20
17.281,-0.06,0.11,-0.24,0.27
17.288,-0.07,0.16,-0.47,0.50
17.292,-0.15,0.13,-0.39,0.44
17.297,-0.14,0.14,-0.24,0.31
17.325,-0.13,0.07,-0.17,0.22
17.327,-0.14,0.02,-0.15,0.20
17.328,-0.02,0.04,-0.29,0.29
17.328,-0.09,0.07,-0.41,0.42
17.329,-0.04,0.08,-0.36,0.37
17.330,-0.12,0.09,-0.24,0.29
17.331,-0.12,0.15,-0.16,0.25
17.339,-0.17,0.12,-0.25,0.32
17.340,-0.12,0.11,-0.34,0.38
17.347,-0.01,0.12,-0.44,0.46
17.353,-0.08,0.08,-0.29,0.32
17.357,-0.06,0.05,-0.12,0.14
17.362,-0.07,0.01,-0.20,0.22
17.369,-0.06,0.03,-0.26,0.27
17.370,-0.14,0.08,-0.39,0.42
17.371,-0.08,0.13,-0.42,0.44
17.377,-0.06,0.12,-0.30,0.33
17.384,-0.09,0.12,-0.17,0.23
17.388,-0.14,0.09,-0.20,0.26
17.392,-0.15,0.10,-0.22,0.28
17.397,-0.14,0.06,-0.37,0.40
17.403,-0.11,0.12,-0.31,0.35
17.407,-0.07,0.16,-0.37,0.41
17.413,-0.07,0.03,-0.23,0.24
17.420,-0.01,0.05,-0.22,0.23
17.421,-0.08,0.11,-0.26,0.30
17.469,-0.11,0.14,-0.36,0.40
17.470,-0.09,0.09,-0.48,0.50
17.471,-0.08,0.09,-0.44,0.45
17.472,-0.08,0.07,-0.23,0.25
17.473,-0.03,0.06,-0.13,0.15
17.473,-0.10,0.10,-0.17,0.22
17.474,-0.14,0.09,-0.37,0.41
17.475,-0.24,0.05,-0.43,0.50
17.476,-0.17,0.12,-0.44,0.49
17.476,-0.10,0.11,-0.23,0.27
17.477,-0.07,0.10,-0.07,0.14
17.485,-0.06,0.21,-0.32,0.38
17.489,-0.14,0.02,-0.37,0.39
17.493,-0.10,-0.04,-0.37,0.39
17.500,-0.08,0.15,-0.26,0.31
17.505,-0.06,0.13,-0.11,0.18
17.508,-0.01,0.01,-0.20,0.20
17.514,-0.06,0.09,-0.34,0.36
17.518,-0.15,0.13,-0.38,0.43
17.523,-0.15,0.08,-0.29,0.34
17.528,-0.11,0.13,-0.22,0.28
17.538,-0.10,0.15,-0.21,0.28
17.543,-0.06,0.03,-0.24,0.25
17.543,-0.07,0.04,-0.32,0.33
17.581,-0.09,0.16,-0.32,0.37
17.583,-0.12,0.10,-0.31,0.34
17.583,-0.12,0.01,-0.33,0.35
17.584,-0.06,0.09,-0.29,0.31
17.585,-0.08,0.11,-0.22,0.26
17.585,-0.13,0.06,-0.20,0.24
17.586,-0.13,0.10,-0.32,0.36
17.587,-0.14,0.11,-0.43,0.47
17.590,-0.16,0.03,-0.35,0.38
17.595,-0.12,0.03,-0.23,0.26
17.599,-0.03,0.11,-0.19,0.22
17.605,-0.03,0.11,-0.25,0.28
17.609,-0.07,0.07,-0.36,0.37
17.616,-0.17,0.12,-0.40,0.45
17.624,-0.16,0.16,-0.36,0.43
17.625,-0.10,0.10,-0.30,0.33
17.629,-0.03,0.08,-0.25,0.26
17.636,-0.01,0.12,-0.29,0.32
17.639,-0.09,0.09,-0.29,0.32
17.644,-0.07,0.06,-0.31,0.32
17.652,-0.08,0.09,-0.32,0.34
17.656,-0.17,0.07,-0.27,0.32
17.660,-0.06,0.08,-0.32,0.34
17.668,-0.09,0.05,-0.22,0.24
17.669,-0.05,0.07,-0.24,0.26
17.675,-0.10,0.06,-0.36,0.38
17.683,-0.10,0.07,-0.32,0.35
17.686,-0.16,0.08,-0.25,0.30
17.691,-0.07,0.09,-0.26,0.28
17.695,-0.04,0.04,-0.22,0.23
17.704,-0.08,0.08,-0.32,0.34
17.706,-0.07,0.10,-0.31,0.33
17.710,-0.06,0.10,-0.29,0.32
17.753,-0.09,0.10,-0.22,0.26
17.753,-0.14,0.14,-0.28,0.34
17.754,-0.05,0.05,-0.30,0.31
17.754,-0.07,0.07,-0.32,0.34
17.755,-0.08,0.05,-0.24,0.26
17.755,-0.05,0.07,-0.10,0.13
17.755,-0.06,0.02,-0.09,0.11
17.756,-0.09,0.05,-0.16,0.19
17.758,-0.13,0.02,-0.24,0.28
17.762,-0.11,0.09,-0.49,0.51
17.767,-0.14,0.07,-0.46,0.49
17.770,-0.14,0.05,-0.28,0.32
17.776,-0.01,0.02,0.03,0.03
17.781,-0.09,0.10,0.01,0.14
17.786,-0.17,0.31,-0.16,0.39
17.791,-0.11,0.18,-0.54,0.58
17.798,-0.11,0.10,-0.63,0.65
17.802,-0.03,0.10,-0.52,0.53
17.806,-0.00,0.04,-0.20,0.20
17.810,-0.04,0.12,0.12,0.17
17.816,-0.08,0.16,-0.05,0.18
17.821,-0.10,0.14,-0.50,0.53
17.826,-0.15,0.10,-0.70,0.72
17.832,-0.03,0.07,-0.59,0.60
17.833,-0.09,0.11,-0.30,0.33
17.837,-0.07,0.12,-0.06,0.15
17.843,-0.06,0.03,-0.14,0.16
17.882,-0.17,0.07,-0.47,0.51
17.883,-0.23,0.10,-0.67,0.72
17.883,-0.15,0.04,-0.44,0.47
17.884,-0.12,0.02,-0.29,0.32
17.885,-0.01,-0.00,-0.12,0.12
17.886,-0.00,0.00,0.05,0.05
17.887,-0.07,0.08,-0.14,0.18
17.887,-0.14,0.15,-0.38,0.43
17.888,-0.17,0.14,-0.44,0.49
17.894,-0.13,0.13,-0.26,0.31
17.899,-0.06,0.04,0.04,0.08
17.903,-0.04,0.11,0.15,0.19
17.909,-0.07,0.22,0.01,0.23
17.914,-0.06,0.17,-0.27,0.32
17.920,-0.07,0.09,-0.61,0.62
17.923,-0.13,0.02,-0.62,0.63
17.928,-0.12,0.03,-0.28,0.31
17.934,-0.07,0.06,-0.05,0.10
17.938,-0.09,0.06,-0.08,0.13
17.943,-0.18,0.02,-0.50,0.54
17.950,-0.22,0.09,-0.70,0.74
17.954,-0.17,0.18,-0.42,0.49
17.959,-0.04,0.17,-0.06,0.18
17.968,0.00,0.12,-0.01,0.12
17.969,-0.03,0.05,-0.28,0.29
17.973,-0.10,-0.02,-0.53,0.54
18.014,-0.16,0.01,-0.56,0.58
18.015,-0.16,0.11,-0.37,0.42
18.016,-0.10,0.13,-0.16,0.23
18.017,-0.05,0.10,-0.12,0.17
18.018,-0.05,0.12,-0.19,0.23
18.018,-0.05,0.12,-0.25,0.28
18.019,-0.06,0.09,-0.32,0.34
18.020,-0.09,0.03,-0.38,0.39
18.021,-0.11,-0.01,-0.34,0.36
18.025,-0.09,0.05,-0.28,0.30
18.030,-0.07,0.13,-0.20,0.24
18.035,-0.08,0.18,-0.20,0.28
18.039,-0.06,0.19,-0.22,0.30
18.043,0.10,0.18,0.93,0.95
18.051,0.21,-0.02,1.20,1.22
18.054,-0.06,-0.32,-0.92,0.98
18.059,-0.21,-0.11,-0.99,1.02
18.066,-0.01,-0.02,-1.95,1.95
18.071,0.82,-0.24,-1.19,1.46
18.075,1.32,-0.35,-0.19,1.38
18.111,0.52,0.02,0.30,0.60
18.112,-0.26,0.26,-0.09,0.38
18.112,-0.54,0.32,-0.75,0.98
18.113,-0.39,0.27,-0.20,0.51
18.114,-0.15,0.18,0.19,0.30
18.115,0.02,0.20,0.45,0.49
18.115,0.23,0.00,0.07,0.24
18.116,0.36,-0.10,-0.33,0.50
18.120,0.35,0.02,-0.51,0.62
18.125,0.31,-0.06,-0.50,0.60
18.129,0.07,-0.07,-0.27,0.29
18.135,-0.17,0.04,-0.37,0.41
18.140,-0.22,0.07,-0.38,0.44
18.147,-0.11,0.09,-0.32,0.35
18.151,-0.13,0.18,-0.13,0.26
18.156,-0.36,0.22,-0.08,0.43
18.163,-0.43,0.16,-0.12,0.47
18.167,-0.29,0.14,-0.23,0.39
18.172,0.02,0.07,-0.48,0.48
18.176,0.35,0.03,-0.55,0.65
18.184,0.33,0.03,-0.34,0.48
18.185,0.29,0.09,-0.27,0.40
18.191,0.10,0.14,-0.35,0.39
18.198,-0.49,0.24,-0.37,0.67
18.202,-0.80,0.20,-0.23,0.85
18.206,-0.80,0.26,-0.09,0.85
18.251,-0.55,0.24,0.03,0.60
18.252,-0.38,0.25,0.06,0.46
18.253,-0.35,0.14,-0.27,0.47
18.254,-0.34,0.09,-0.44,0.56
18.255,-0.32,0.06,-0.62,0.70
18.256,-0.18,0.05,-0.60,0.62
18.257,-0.19,0.14,-0.43,0.49
18.258,-0.16,0.15,-0.21,0.31
18.258,-0.11,0.16,-0.27,0.33
18.259,-0.36,0.27,-0.35,0.57
18.263,-0.72,0.33,-0.36,0.87
18.268,-0.26,0.19,-0.40,0.51
18.272,-0.09,0.12,-0.15,0.21
18.279,-0.06,0.11,-0.04,0.14
18.283,-0.07,0.09,0.00,0.11
18.287,-0.08,0.09,-0.13,0.18
18.292,-0.09,0.07,-0.27,0.29
18.298,-0.11,0.02,-0.11,0.16
18.299,-0.16,-0.03,-0.31,0.35
18.300,-0.10,0.02,-0.32,0.34
18.307,-0.07,0.01,-0.45,0.46
18.314,-0.03,0.07,-0.14,0.16
18.321,0.09,0.05,-0.21,0.24
18.324,0.09,0.06,-0.19,0.22
18.361,-0.04,0.06,-0.46,0.47
18.362,-0.14,0.10,-0.55,0.58
18.363,-0.13,0.13,-0.45,0.48
18.364,-0.16,0.15,-0.28,0.35
18.364,-0.15,0.21,-0.21,0.33
18.365,-0.19,0.19,-0.26,0.37
18.366,-0.21,0.14,-0.28,0.38
18.367,-0.22,0.12,-0.39,0.47
18.368,-0.16,0.10,-0.30,0.36
18.372,-0.12,0.09,-0.30,0.33
18.378,-0.06,0.09,-0.30,0.32
18.382,0.05,0.11,-0.31,0.33
18.387,0.21,0.10,-0.25,0.34
18.392,0.52,0.08,-0.09,0.54
18.398,0.70,0.04,-0.17,0.72
18.403,0.70,0.08,-0.30,0.76
18.407,0.56,0.11,-0.37,0.68
18.413,0.33,0.13,-0.29,0.45
18.419,-0.08,0.14,-0.17,0.24
18.422,-0.46,0.08,-0.21,0.51
18.428,-0.35,0.04,-0.31,0.47
18.433,-0.13,0.07,-0.39,0.41
18.438,-0.35,0.11,-0.33,0.50
18.472,-0.56,0.08,-0.28,0.63
18.472,-0.64,0.11,-0.28,0.70
18.472,-0.60,0.09,-0.15,0.62
18.473,-0.42,-0.02,-0.17,0.45
18.473,-0.35,0.05,-0.34,0.49
18.474,-0.30,0.12,-0.41,0.53
18.474,-0.25,0.03,-0.48,0.54
18.480,-0.23,-0.02,-0.40,0.47
18.484,-0.18,0.04,-0.19,0.26
18.489,-0.11,0.14,-0.09,0.20
18.495,-0.15,0.14,-0.20,0.29
18.500,-0.15,0.08,-0.32,0.37
18.504,-0.12,0.07,-0.36,0.38
18.511,-0.11,0.09,-0.30,0.33
18.514,-0.09,0.11,-0.32,0.35
18.520,-0.09,0.17,-0.43,0.47
18.525,-0.05,0.15,-0.46,0.49
18.530,0.16,0.04,-0.22,0.28
18.534,0.44,0.04,0.08,0.45
18.539,0.47,0.09,0.00,0.48
18.544,0.24,0.06,-0.33,0.41
18.549,0.01,0.04,-0.60,0.60
18.556,-0.11,0.09,-0.49,0.51
18.562,-0.13,0.11,-0.20,0.26
18.566,-0.22,0.06,-0.15,0.28
18.570,-0.26,0.09,-0.21,0.35
18.605,-0.21,0.11,-0.34,0.42
18.606,-0.12,0.11,-0.27,0.32
18.607,-0.10,0.14,-0.36,0.40
18.608,-0.06,0.07,-0.36,0.37
18.609,0.08,-0.03,-0.30,0.31
18.609,0.18,0.03,-0.07,0.20
18.610,0.26,0.16,-0.20,0.37
18.611,0.26,0.15,-0.26,0.40
18.615,0.22,0.07,-0.26,0.35
18.623,0.02,0.08,-0.23,0.25
18.627,-0.21,0.14,-0.09,0.26
18.631,-0.70,0.11,-0.04,0.71
18.635,-0.79,0.19,-0.35,0.88
18.640,-0.61,0.15,-0.50,0.80
18.647,-0.40,0.10,-0.43,0.59
18.653,-0.37,0.10,-0.23,0.45
18.654,-0.33,0.13,-0.17,0.40
18.661,-0.23,0.10,-0.21,0.33
18.666,-0.20,0.06,-0.51,0.55
18.672,-0.11,0.01,-0.47,0.48
18.683,-0.04,0.08,-0.20,0.22
18.684,0.04,0.09,-0.28,0.30
18.688,-0.03,0.09,-0.19,0.21
18.712,-0.04,0.13,-0.32,0.34
18.713,-0.11,0.12,-0.28,0.32
18.714,-0.08,0.08,-0.24,0.26
18.714,-0.22,0.11,-0.26,0.36
18.715,-0.28,0.15,-0.29,0.43
18.716,-0.21,0.11,-0.24,0.34
18.723,-0.21,0.08,-0.43,0.48
18.728,-0.09,0.08,-0.45,0.47
18.731,-0.06,0.15,-0.35,0.39
18.743,-0.02,0.14,-0.26,0.29
18.744,-0.12,0.10,-0.31,0.34
18.747,-0.31,0.14,-0.37,0.50
18.752,-0.44,0.18,-0.38,0.61
18.760,-0.52,0.28,0.49,0.77
18.761,-1.17,0.11,-0.34,1.23
18.762,-7.56,1.17,-1.36,7.77
18.772,-6.95,2.25,6.88,10.03
18.774,12.82,-2.41,-6.05,14.38
18.778,6.99,-0.50,6.29,9.42
18.782,1.74,-0.39,4.06,4.43
18.786,0.26,-0.57,-0.11,0.63
18.793,-0.93,0.11,-4.86,4.95
18.804,-2.08,0.63,-5.96,6.34
18.805,-0.72,-0.05,-1.51,1.67
18.805,0.22,0.34,3.48,3.50
18.826,-0.00,0.44,3.77,3.79
18.827,0.18,-0.47,0.98,1.10
18.828,-0.40,0.07,-2.71,2.74
18.833,-1.62,0.74,-5.03,5.34
18.834,-2.30,0.28,-2.84,3.67
18.838,-1.75,-0.03,0.18,1.76
18.842,0.28,0.06,3.83,3.84
18.847,3.14,0.02,2.90,4.27
18.853,2.42,0.21,0.27,2.44
18.866,-0.10,0.26,-2.14,2.16
18.867,-0.99,-0.12,-2.55,2.74
18.868,-0.54,-0.37,-0.84,1.06
18.875,0.12,-0.39,1.07,1.14
18.879,0.55,-0.25,1.44,1.57
18.883,0.14,0.62,0.43,0.77
18.895,0.00,0.44,-0.90,1.00
18.896,-0.23,-0.24,-1.31,1.35
18.900,-0.62,0.12,-0.69,0.94
18.903,-0.29,-0.03,0.14,0.33
18.911,-0.03,-0.49,0.56,0.75
18.914,-0.30,0.39,0.34,0.59
18.959,-0.08,0.78,-0.58,0.97
18.960,0.21,-0.00,-0.95,0.97
18.961,0.00,-0.08,-0.45,0.45
18.962,0.04,-0.01,-0.12,0.13
18.963,-0.01,-0.20,0.08,0.22
18.964,-0.27,0.15,0.09,0.32
18.964,-0.29,0.40,-0.38,0.63
18.965,-0.29,0.19,-0.82,0.89
18.966,-0.29,-0.03,-0.67,0.73
18.967,-0.19,-0.06,-0.30,0.36
18.970,-0.16,0.03,0.09,0.18
18.974,-0.13,-0.00,-0.01,0.13
18.986,-0.09,-0.05,-0.38,0.39
18.988,-0.16,0.01,-0.66,0.68
18.989,-0.18,0.06,-0.43,0.47
18.996,-0.22,0.14,-0.16,0.30
19.000,-0.32,0.26,-0.09,0.42
19.004,-0.38,0.15,-0.26,0.49
19.017,-0.37,0.01,-0.43,0.57
19.020,-0.32,0.11,-0.43,0.55
19.021,-0.20,0.17,-0.27,0.38
19.026,-0.07,0.21,-0.17,0.28
19.030,-0.06,0.15,-0.21,0.27
19.035,-0.04,-0.03,-0.20,0.20
19.044,-0.20,0.02,-0.34,0.40
19.045,-0.24,0.13,-0.43,0.50
19.052,-0.22,0.11,-0.37,0.45
19.092,-0.11,0.14,-0.31,0.36
19.092,0.01,0.06,-0.15,0.17
19.093,0.05,-0.07,-0.06,0.10
19.093,0.01,-0.05,-0.18,0.19
19.094,0.23,-0.02,-0.01,0.23
19.094,0.27,-0.01,1.01,1.04
19.096,-0.13,-0.11,0.88,0.90
19.096,-0.32,-0.08,-0.97,1.02
19.097,-0.60,0.20,-1.04,1.22
19.100,-0.57,0.23,-2.36,2.44
19.106,-0.27,0.16,-1.15,1.19
19.110,-0.06,0.15,-0.26,0.31
19.115,0.03,0.13,0.19,0.23
19.121,-0.11,0.07,-0.49,0.51
19.126,-0.15,0.15,-0.69,0.72
19.130,-0.05,0.25,-0.16,0.30
19.135,0.19,0.24,0.52,0.61
19.141,0.07,0.16,0.51,0.54
19.145,-0.18,0.08,-0.43,0.47
19.152,-0.30,0.16,-0.91,0.97
19.156,-0.26,0.08,-0.63,0.68
19.161,-0.09,-0.00,-0.16,0.18
19.166,0.03,-0.05,0.06,0.08
19.173,0.41,-0.21,-0.08,0.47
19.177,0.81,-0.38,-0.06,0.90
19.180,0.57,-0.23,0.10,0.63
19.185,0.44,-0.07,0.07,0.45
19.194,0.27,-0.33,0.44,0.62
19.197,0.17,-0.05,-0.43,0.46
19.202,0.26,0.07,-0.91,0.95
19.241,0.14,0.04,-0.92,0.93
19.242,-5.80,1.92,-0.25,6.11
19.243,-0.38,0.28,-0.71,0.85
19.244,0.01,-0.02,-0.36,0.36
19.245,-0.38,0.00,-0.71,0.81
19.245,-0.27,0.21,-0.31,0.46
19.246,-0.03,0.13,-0.06,0.15
19.247,0.12,0.11,0.01,0.17
19.248,0.12,0.12,-0.22,0.28
19.249,0.06,0.07,-0.28,0.29
19.253,0.06,0.04,-0.17,0.19
19.258,0.08,-0.03,-0.17,0.19
19.262,-0.09,0.03,-0.27,0.29
19.267,0.09,0.09,-0.27,0.30
19.274,0.26,0.12,-0.15,0.32
19.279,0.32,0.19,-0.05,0.37
19.283,0.35,0.19,-0.17,0.43
19.290,0.18,0.14,-0.14,0.26
19.294,-0.02,0.13,-0.13,0.19
19.298,-0.52,0.14,-0.28,0.60
19.302,-0.77,0.09,-0.31,0.84
19.311,-0.78,0.06,-0.52,0.94
19.312,-0.67,0.02,-0.67,0.95
19.317,-0.66,-0.02,-0.54,0.85
19.324,-0.64,0.05,-0.40,0.76
19.328,-0.52,0.08,-0.30,0.60
19.333,-0.35,0.03,-0.23,0.43
19.368,-0.23,0.04,-0.24,0.33
19.369,-0.09,0.10,-0.10,0.17
19.370,0.04,0.12,0.00,0.13
19.371,0.10,0.07,-0.02,0.13
19.371,0.15,0.01,-0.18,0.23
19.372,0.10,-0.01,-0.36,0.37
19.373,-0.02,0.02,-0.46,0.46
19.374,-0.10,0.13,-0.41,0.44
19.380,-0.08,0.18,-0.38,0.43
19.383,-0.08,0.13,-0.49,0.52
19.389,-0.14,0.11,-0.58,0.60
19.394,-0.19,0.09,-0.58,0.61
19.398,-0.22,0.09,-0.46,0.51
19.406,-0.20,0.10,-0.32,0.39
19.410,-0.14,0.04,-0.35,0.38
19.414,-0.09,0.04,-0.45,0.46
19.419,1.48,-0.22,-0.35,1.53
19.426,2.99,-0.40,-0.15,3.02
19.430,1.16,0.09,-0.14,1.18
19.434,0.28,0.13,-0.25,0.40
19.441,1.16,-0.17,-0.35,1.23
19.445,1.27,-0.18,-0.34,1.33
19.451,0.69,0.05,-0.36,0.78
19.489,-0.35,0.32,-0.18,0.51
19.490,-1.16,0.42,-0.02,1.23
19.491,-1.58,0.30,0.14,1.61
19.491,-1.44,0.17,0.08,1.45
19.492,-0.98,0.22,-0.18,1.02
19.493,-0.55,0.04,-0.55,0.78
19.494,-0.47,-0.07,-0.68,0.83
19.495,-0.47,-0.03,-0.54,0.72
19.498,-0.51,0.10,-0.33,0.62
19.499,-0.36,0.20,-0.26,0.49
19.504,-0.33,0.14,-0.26,0.44
19.510,-0.27,0.03,-0.20,0.34
19.515,-0.09,-0.08,-0.05,0.12
19.521,-0.18,-0.02,0.03,0.18
19.525,-0.44,0.13,0.04,0.46
19.529,-0.37,0.13,-0.13,0.41
19.534,-0.09,0.08,-0.30,0.33
19.541,-0.22,0.05,-0.41,0.46
19.544,-0.16,0.05,-0.50,0.53
19.549,-0.16,0.10,-0.44,0.47
19.558,-0.21,0.13,-0.34,0.43
19.561,-0.24,0.14,-0.27,0.39
19.565,-0.13,0.02,-0.43,0.45
19.575,-0.02,-0.06,-0.43,0.43
19.580,0.03,-0.05,-0.37,0.38
19.580,-0.06,0.06,0.09,0.12
19.600,-0.06,0.14,-0.04,0.16
19.601,-0.11,0.12,-0.36,0.40
19.602,-0.13,-0.03,-0.59,0.61
19.602,0.01,-0.03,-0.58,0.58
19.606,0.10,-0.03,-0.31,0.33
19.611,0.28,-0.06,-0.21,0.35
19.615,0.30,0.12,-0.20,0.38
19.621,0.19,-0.00,-0.29,0.35
19.625,-0.02,0.14,-0.38,0.41
19.631,-0.15,0.21,-0.16,0.30
19.636,-0.26,0.27,-0.10,0.39
19.640,-0.41,0.27,-0.24,0.54
19.646,-0.31,0.17,-0.45,0.57
19.653,-0.18,0.18,-0.25,0.35
19.656,-0.14,0.15,-0.20,0.29
19.662,-0.16,0.22,-0.28,0.39
19.666,-0.18,0.18,-0.48,0.55
19.672,-0.08,0.17,-0.22,0.29
19.676,-0.14,0.11,-0.40,0.44
19.681,-0.10,0.21,-0.31,0.39
19.681,-0.04,0.51,-0.28,0.58
19.685,-0.09,0.60,-0.19,0.64
19.691,-0.11,0.52,-0.24,0.59
19.696,-0.14,0.33,-0.43,0.56
19.706,-0.04,0.29,-0.66,0.73
19.707,0.06,0.32,-0.24,0.40
19.710,0.06,-0.30,0.01,0.30
19.715,0.07,-0.29,-0.11,0.32
19.727,-0.05,-0.63,-0.23,0.67
19.728,0.06,-0.97,-0.31,1.02
19.731,0.06,-0.54,-0.30,0.61
19.736,0.04,0.19,-0.21,0.28
19.742,-0.05,0.38,-0.21,0.44
19.746,-0.09,0.17,-0.29,0.35
19.752,0.00,0.03,-0.53,0.53
19.756,0.05,-0.02,-0.43,0.44
19.762,-0.05,-0.03,-0.05,0.08
19.768,-0.06,0.08,-0.03,0.10
19.772,-0.13,0.20,-0.42,0.48
19.778,-0.17,0.16,-0.48,0.53
19.782,-0.06,0.07,-0.48,0.49
19.788,-0.09,0.17,-0.28,0.34
19.792,-0.13,0.33,-0.26,0.43
19.797,-0.02,0.26,-0.46,0.53
19.803,-0.00,0.10,-0.59,0.60
19.807,0.01,0.12,-0.53,0.54
19.813,0.03,0.17,-0.35,0.39
19.819,0.03,0.01,-0.33,0.33
19.823,0.04,-0.31,-0.51,0.60
19.829,0.05,-0.45,-0.62,0.77
19.835,0.12,-0.13,-0.54,0.57
19.839,0.12,0.12,-0.23,0.29
19.844,0.03,0.08,-0.02,0.09
19.849,-0.10,0.09,-0.23,0.27
19.852,-0.11,0.02,-0.48,0.49
19.860,-0.02,-0.08,-0.45,0.46
19.863,0.01,0.05,-0.16,0.17
19.869,0.05,0.14,0.18,0.23
19.874,0.02,-0.00,0.18,0.18
19.879,-0.09,-0.09,0.03,0.13
19.911,-0.13,-0.20,0.03,0.24
19.912,-0.11,-0.25,0.09,0.29
19.912,-0.15,0.09,0.05,0.19
19.913,-0.09,0.44,-0.45,0.63
19.914,0.04,0.57,-0.70,0.90
19.915,0.06,0.49,-0.59,0.77
19.915,-0.18,0.25,-0.13,0.33
19.919,-0.49,0.09,0.17,0.52
19.923,-0.08,-0.09,-0.32,0.34
19.929,0.20,-0.08,-0.65,0.69
19.934,0.14,0.16,-0.68,0.72
19.939,0.30,0.23,-0.17,0.41
19.944,0.21,0.08,0.03,0.22
19.951,-0.10,-0.02,-0.54,0.55
19.955,-0.24,-0.29,-0.61,0.72
19.960,-0.28,-0.17,-0.58,0.67
19.965,-0.10,0.03,-0.02,0.11
19.969,0.07,0.15,0.06,0.18
19.974,0.22,0.24,-0.07,0.33
19.980,0.20,-0.02,-0.44,0.48
19.986,0.06,-0.10,-0.44,0.45
19.992,-0.10,0.04,-0.30,0.32
19.996,-0.14,0.12,-0.20,0.27
20.031,-0.01,0.03,-0.24,0.24
20.032,0.10,0.01,-0.45,0.46
20.033,0.09,0.07,-0.42,0.44
20.034,0.06,0.08,-0.28,0.30
20.035,0.03,0.15,-0.17,0.23
20.035,-0.11,0.18,-0.30,0.37
20.036,0.01,0.09,-0.55,0.56
20.037,0.04,0.05,-0.47,0.47
20.041,0.13,0.14,-0.15,0.24
20.046,0.17,0.18,0.04,0.25
20.050,-0.01,0.05,-0.19,0.20
20.055,-0.15,-0.05,-0.35,0.39
20.060,-0.14,-0.06,-0.57,0.59
20.066,-0.05,0.01,-0.42,0.42
20.071,-0.06,-0.01,-0.18,0.19
20.076,-0.16,0.04,-1.25,1.26
20.080,0.06,0.21,-0.80,0.83
20.087,0.38,0.08,1.79,1.83
20.091,0.21,-0.03,0.58,0.62
20.096,-0.05,0.10,-0.33,0.34
20.101,-0.06,-0.04,-0.92,0.92
20.106,-0.17,-0.03,-1.39,1.40
20.112,-0.07,0.14,-0.61,0.63
20.116,0.08,0.09,0.06,0.13
20.124,0.10,0.11,0.41,0.44
20.125,0.10,0.07,0.25,0.28
20.135,-0.05,0.12,-0.46,0.47
20.136,-0.15,0.21,-0.97,1.00
20.145,-0.14,0.14,-0.79,0.82
20.146,0.06,0.03,-0.34,0.34
20.147,0.12,0.04,0.28,0.31
20.179,0.11,-0.04,0.33,0.35
20.180,0.04,-0.10,-0.10,0.15
20.180,-0.13,0.02,-0.82,0.83
20.181,-0.11,0.02,-0.91,0.92
20.182,-0.03,0.01,-0.55,0.56
20.183,0.04,0.13,0.05,0.15
20.184,0.14,0.13,0.37,0.41
20.187,-0.03,0.02,0.06,0.07
20.193,-0.21,-0.21,-0.32,0.43
20.196,-0.23,-0.40,-1.27,1.35
20.202,-0.07,0.34,-1.07,1.13
20.207,-0.17,0.69,0.13,0.73
20.212,0.45,0.09,0.29,0.54
20.217,0.21,0.09,0.37,0.44
20.223,0.09,0.16,-0.28,0.33
20.227,0.17,-0.37,-0.63,0.75
20.232,-0.27,-0.22,-0.13,0.37
20.239,-0.15,0.55,-0.08,0.58
20.242,0.10,0.45,-0.74,0.87
20.273,0.00,-0.01,-0.72,0.72
20.274,0.12,-0.14,-0.50,0.54
20.275,0.10,0.02,-0.06,0.11
20.275,-0.11,0.14,0.34,0.38
20.276,-0.06,0.05,-0.13,0.15
20.277,-0.03,-0.07,-0.79,0.79
20.278,0.02,-0.10,-0.86,0.86
20.284,0.12,0.12,-0.30,0.34
20.288,0.01,0.39,0.23,0.45
20.293,-0.07,0.25,0.13,0.29
20.298,-0.11,-0.09,-0.49,0.51
20.303,-0.14,-0.23,-0.87,0.91
20.308,-0.09,-0.33,-0.49,0.60
20.315,-0.06,-0.02,0.02,0.07
20.322,0.05,0.69,-0.03,0.69
20.323,0.22,0.36,-0.18,0.46
20.328,0.11,-0.37,-0.27,0.47
20.334,-0.05,-0.05,-0.38,0.38
20.338,0.01,0.19,-0.24,0.31
20.343,-0.04,0.07,-0.18,0.19
20.349,-0.06,0.11,-0.37,0.40
20.354,0.01,0.09,-0.61,0.62
20.360,0.06,-0.03,-0.24,0.25
20.364,0.03,0.07,0.04,0.08
20.370,-0.04,0.22,-0.21,0.30
20.374,-0.12,0.11,-0.53,0.56
20.378,-0.11,0.04,-0.81,0.81
20.385,-0.07,-0.05,-0.55,0.55
20.389,-0.01,-0.01,0.01,0.02
20.394,0.09,0.13,0.36,0.39
20.402,0.07,0.12,0.02,0.14
20.404,-0.07,0.08,-0.51,0.52
20.409,-0.13,0.01,-0.68,0.70
20.439,-0.13,0.02,-0.43,0.45
20.440,-0.09,0.11,-0.09,0.17
20.441,-0.03,0.12,-0.16,0.20
20.441,-0.05,0.09,-0.44,0.45
20.441,-0.03,0.05,-0.61,0.62
20.442,-0.03,0.08,-0.59,0.60
20.445,-0.02,0.12,-0.31,0.33
20.451,-0.04,0.07,-0.08,0.11
20.455,-0.03,0.03,-0.14,0.15
20.460,-0.06,0.07,-0.38,0.39
20.465,0.01,0.11,-0.50,0.51
20.470,0.06,0.16,-0.31,0.36
20.475,0.16,0.12,-0.03,0.21
20.480,0.12,-0.00,0.04,0.12
20.485,-0.06,-0.03,-0.05,0.08
20.490,-0.07,0.01,-0.18,0.19
20.497,-0.04,0.14,-0.31,0.34
20.500,-0.01,0.06,-0.03,0.06
20.506,0.11,-0.03,-0.06,0.13
20.510,0.03,0.02,-0.21,0.21
20.514,-0.12,-0.03,-0.46,0.47
20.520,-0.12,0.04,-0.70,0.71
20.526,-0.06,0.23,-0.44,0.50
20.533,0.03,-0.01,-0.01,0.03
20.538,0.08,-0.01,-0.23,0.24
20.541,0.18,0.17,-0.19,0.31
20.566,0.04,0.15,-0.47,0.49
20.567,-0.01,0.14,-0.42,0.45
20.568,0.02,0.08,-0.37,0.38
20.569,0.07,0.01,-0.48,0.49
20.569,-0.02,-0.08,-0.27,0.28
20.570,-0.05,-0.06,-0.22,0.24
20.577,-0.11,0.04,-0.30,0.32
20.581,-0.11,0.13,-0.55,0.58
20.586,-0.09,0.07,-0.61,0.62
20.591,-0.08,-0.01,-0.49,0.50
20.597,-0.07,-0.03,-0.13,0.15
20.601,-0.09,0.07,0.09,0.14
20.607,0.05,0.11,0.03,0.12
20.613,0.02,0.05,-0.13,0.14
20.614,0.01,0.04,-0.27,0.27
20.620,0.10,0.12,-0.13,0.20
20.621,0.02,0.14,-0.11,0.18
20.626,-0.01,0.17,-0.18,0.24
20.633,-0.04,0.14,-0.20,0.24
20.637,0.01,0.04,-0.25,0.25
20.641,0.06,0.07,-0.27,0.28
20.645,0.02,0.11,-0.38,0.40
20.651,-0.07,0.07,-0.57,0.58
20.657,-0.15,-0.03,-0.76,0.77
20.666,-0.08,-0.00,-0.59,0.60
20.667,-0.04,0.04,-0.26,0.27
20.673,0.07,0.02,-0.01,0.07
20.676,0.10,0.03,0.05,0.12
20.701,0.06,0.04,-0.15,0.17
20.702,0.02,-0.01,-0.39,0.39
20.703,-0.06,-0.01,-0.44,0.44
20.704,-0.08,0.03,-0.35,0.36
20.704,-0.07,0.05,-0.19,0.21
20.708,-0.04,0.09,-0.18,0.21
20.712,0.02,0.10,-0.29,0.31
20.719,0.02,0.10,-0.30,0.31
20.723,0.06,0.12,-0.14,0.19
20.729,0.06,0.16,-0.10,0.19
20.734,-0.03,0.20,-0.23,0.31
20.738,-0.11,0.16,-0.42,0.46
20.746,-0.22,0.12,-0.42,0.49
20.749,-0.38,0.18,-0.42,0.60
20.754,-0.59,0.29,-0.41,0.77
20.758,-0.84,0.35,-0.25,0.95
20.764,-1.27,0.50,-0.07,1.37
20.772,-2.13,0.83,0.00,2.29
20.773,-2.56,0.99,-0.03,2.75
20.783,-3.31,1.39,-0.02,3.59
20.785,-5.37,1.82,0.83,5.73
20.837,-1.36,-0.21,1.22,1.84
20.838,6.35,-2.52,0.19,6.83
20.839,7.24,-2.16,-1.09,7.64
20.840,3.60,-1.07,-2.24,4.37
20.841,0.17,0.06,-1.71,1.72
20.842,-0.10,0.37,-0.54,0.66
20.842,0.14,0.08,0.03,0.17
20.843,0.19,-0.27,0.17,0.37
20.844,0.00,-0.30,-0.48,0.57
20.845,0.14,0.04,-0.60,0.62
20.845,0.03,0.40,-0.43,0.59
20.846,-0.11,0.32,-0.15,0.36
20.854,-0.23,0.11,-0.22,0.33
20.855,-0.31,0.01,-0.29,0.43
20.859,-0.25,-0.06,-0.14,0.29
